Lat GPS (deg),Long GPS (deg),Accelerometer Y (rad/s^2),Gyroscope X (rad/s),Gyroscope Z (rad/s),Steering Angle encoder(rad),Speed GPS (m/s),Time (ms),Time,flag,flag,flag,State Estimate X (m),State Estimate Y (m),State Estimate Psi (rad),State Estimate Roll (rad),State Estimate Rollrate (rad/s),State Estimate Delta (rad),State Estimate Velocity (m/s),Steerrate input (rad/s),drct,drct,drct,drct,drct
0,0,-2.0322,-0.000611,-0.096059,0,3,3926287,0,0,0,0,0.449988,-0.004314,-0.006788,0.089934,0.01949,-0.025945,3,0,0,0,0,0,0
0,0,-2.035791,-0.007025,-0.097586,0,3,3926297,0.01,0,0,0,0.479985,-0.004849,-0.007456,0.089951,0.017273,-0.025987,3,0,0,0,0,0,0
0,0,-2.046562,-0.000458,-0.095295,0,3,3926307,0.02,0,0,0,0.509981,-0.005405,-0.008125,0.090337,0.01873,-0.025353,3,0,0,0,0,0,0
0,0,-2.048956,-0.004581,-0.095906,0,3,3926316,0.029,0,0,0,0.539978,-0.005973,-0.008778,0.090464,0.017892,-0.025453,3,0,0,0,0,0,0
57.687489,11.97962,-2.056137,-0.000764,-0.093157,0,3,3926327,0.04,0,0,0,0.569974,-0.006561,-0.009433,0.090718,0.019035,-0.024858,3,0,0,0,0,0,0
57.687489,11.97962,-2.029807,-0.000916,-0.095753,0,3,3926337,0.05,0,0,0,0.599969,-0.007162,-0.010073,0.089843,0.019066,-0.0258,3,0,0,0,0,0,0
57.687489,11.97962,-2.041775,-0.002291,-0.093615,0,3,3926347,0.06,0,0,0,0.629965,-0.007794,-0.010737,0.090104,0.019084,-0.025031,3,0,0,0,0,0,0
57.687489,11.97962,-2.050153,-0.000611,-0.096517,0,3,3926356,0.069,0,0,0,0.659959,-0.008436,-0.011382,0.090489,0.01971,-0.025385,3,0,0,0,0,0,0
57.687489,11.97962,-2.034594,-0.00336,-0.095295,0,3,3926367,0.08,0,0,0,0.689954,-0.009102,-0.012035,0.089967,0.018699,-0.025657,3,0,0,0,0,0,0
57.687489,11.97962,-2.050153,-0.005803,-0.092088,0,3,3926377,0.09,0,0,0,0.719948,-0.009791,-0.012696,0.090384,0.017627,-0.024603,3,0,0,0,0,0,0
57.687489,11.97962,-2.05853,-0.002291,-0.093615,0,3,3926387,0.1,0,0,0,0.749941,-0.010486,-0.013329,0.090778,0.018289,-0.024681,3,0,0,0,0,0,0
57.687489,11.97962,-2.069302,-0.003054,-0.090103,0,3,3926396,0.109,0,0,0,0.779934,-0.011201,-0.013965,0.091169,0.018556,-0.023986,3,0,0,0,0,0,0
57.687489,11.97962,-2.050153,-0.001222,-0.092546,0,3,3926407,0.12,0,0,0,0.809927,-0.011927,-0.014582,0.090581,0.018914,-0.0248,3,0,0,0,0,0,0
57.687489,11.97962,-2.020232,-0.00168,-0.09331,0,3,3926417,0.13,0,0,0,0.839919,-0.012681,-0.015221,0.089432,0.018632,-0.025419,3,0,0,0,0,0,0
57.687489,11.97962,-2.0322,-0.002138,-0.089644,0,3,3926427,0.14,0,0,0,0.869911,-0.013463,-0.015875,0.089622,0.018916,-0.024165,3,0,0,0,0,0,0
57.687489,11.97962,-2.034594,-0.000611,-0.09728,0,3,3926437,0.15,0,0,0,0.899902,-0.014248,-0.016497,0.089849,0.01942,-0.025415,3,0,0,0,0,0,0
57.687489,11.97962,-2.048956,-0.002749,-0.094684,0,3,3926447,0.16,0,0,0,0.929893,-0.015067,-0.017152,0.090544,0.019574,-0.024919,3,0,0,0,0,0,0
57.687489,11.97962,-2.048956,-0.002749,-0.094684,0,3,3926457,0.17,0,0,0,0.959883,-0.0159,-0.017793,0.090477,0.019073,-0.025203,3,0,0,0,0,0,0
57.687489,11.97962,-2.047759,-0.000458,-0.094073,0,3,3926467,0.18,0,0,0,0.989872,-0.016756,-0.018442,0.090428,0.019692,-0.025137,3,0,0,0,0,0,0
57.687489,11.97962,-2.048956,-0.000916,-0.094684,0,3,3926477,0.19,0,0,0,1.019861,-0.01763,-0.019089,0.090469,0.019902,-0.025205,3,0,0,0,0,0,0
57.687489,11.97962,-2.035791,0.002138,-0.096517,0,3,3926487,0.2,0,0,0,1.04985,-0.018525,-0.019738,0.090046,0.020949,-0.025825,3,0,0,0,0,0,0
57.687489,11.97962,-2.046562,-0.004887,-0.09499,0,3,3926497,0.21,0,0,0,1.079838,-0.019447,-0.020403,0.090317,0.019201,-0.025314,3,0,0,0,0,0,0
57.687489,11.97962,-2.05853,-0.000764,-0.091935,0,3,3926507,0.22,0,0,0,1.109825,-0.020383,-0.021055,0.090754,0.019932,-0.024491,3,0,0,0,0,0,0
57.687489,11.97962,-2.033397,-0.002138,-0.096211,0,3,3926517,0.23,0,0,0,1.139811,-0.021327,-0.021685,0.089972,0.019154,-0.025764,3,0,0,0,0,0,0
57.687489,11.97962,-2.035791,-0.001833,-0.093768,0,3,3926527,0.24,0,0,0,1.169797,-0.022307,-0.022348,0.089914,0.019175,-0.025209,3,0,0,0,0,0,0
57.687489,11.97962,-2.025019,-0.000305,-0.090103,0,3,3926537,0.25,0,0,0,1.199783,-0.023299,-0.022997,0.089454,0.019689,-0.024529,3,0,0,0,0,0,0
57.687489,11.97962,-2.036988,-0.003971,-0.092241,0,3,3926547,0.26,0,0,0,1.229767,-0.024303,-0.023629,0.089815,0.018806,-0.024404,3,0,0,0,0,0,0
57.687489,11.97962,-2.039381,-0.000611,-0.091019,0,3,3926557,0.27,0,0,0,1.259752,-0.025323,-0.024257,0.089954,0.019551,-0.024236,3,0,0,0,0,0,0
57.687489,11.97962,-2.045365,-0.002902,-0.094073,0,3,3926567,0.28,0,0,0,1.289735,-0.02636,-0.024881,0.090228,0.019084,-0.024753,3,0,0,0,0,0,0
57.687489,11.97962,-2.022626,0,-0.092546,0,3,3926577,0.29,0,0,0,1.319718,-0.027423,-0.025518,0.089453,0.019544,-0.025074,3,0,0,0,0,0,0
57.687489,11.97962,-2.02861,-0.002138,-0.097586,0,3,3926587,0.3,0,0,0,1.3497,-0.028509,-0.026164,0.089619,0.019185,-0.025719,3,0,0,0,0,0,0
57.687489,11.97962,-2.038184,-0.002749,-0.090408,0,3,3926597,0.31,0,0,0,1.379681,-0.029622,-0.026826,0.089882,0.019055,-0.024356,3,0,0,0,0,0,0
57.687489,11.97962,-2.039381,-0.004123,-0.096669,0,3,3926607,0.32,0,0,0,1.409662,-0.030738,-0.027453,0.089927,0.020414,-0.024773,3,0,0,0,0,0,0
57.687489,11.97962,-2.039381,-0.004123,-0.096669,0,3,3926617,0.33,0,0,0,1.439642,-0.031878,-0.028091,0.090053,0.018996,-0.02548,3,0,0,0,0,0,0
57.687489,11.97962,-2.040578,0.000916,-0.090408,0,3,3926626,0.339,0,0,0,1.469621,-0.033046,-0.028747,0.090051,0.020283,-0.024434,3,0,0,0,0,0,0
57.687489,11.97962,-2.052546,0.036957,-0.096517,0,3,3926637,0.35,0,0,0,1.4996,-0.034221,-0.029376,0.090711,0.035134,-0.025176,3,0,0,0,0,0,0
57.687489,11.97962,-2.036988,-0.001833,-0.093004,0,3,3926647,0.36,0,0,0,1.529577,-0.035423,-0.030024,0.090015,0.028665,-0.025277,3,0,0,0,0,0,0
57.687489,11.97962,-2.050153,0.000153,-0.095295,0,3,3926657,0.37,0,0,0,1.559554,-0.036647,-0.030675,0.090438,0.025876,-0.025208,3,0,0,0,0,0,0
57.687489,11.97962,-2.042972,-0.003971,-0.097586,0,3,3926667,0.38,0,0,0,1.58953,-0.037889,-0.031324,0.090276,0.022282,-0.025927,3,0,0,0,0,0,0
57.687489,11.97962,-2.07768,-0.003054,-0.093921,0,3,3926676,0.389,0,0,0,1.619505,-0.03916,-0.031991,0.091461,0.021211,-0.024683,3,0,0,0,0,0,0
57.687489,11.97962,-2.042972,-0.000916,-0.088423,0,3,3926686,0.399,0,0,0,1.64948,-0.040435,-0.032627,0.09031,0.02058,-0.024405,3,0,0,0,0,0,0
57.687489,11.97962,-2.051349,-0.003818,-0.093462,0,3,3926696,0.409,0,0,0,1.679454,-0.041725,-0.033255,0.090488,0.019375,-0.024716,3,0,0,0,0,0,0
57.687489,11.97962,-2.031004,-0.003665,-0.096364,0,3,3926707,0.42,0,0,0,1.709426,-0.043038,-0.033891,0.089843,0.018259,-0.025776,3,0,0,0,0,0,0
57.687489,11.97962,-2.041775,-0.001374,-0.099266,0,3,3926716,0.429,0,0,0,1.739398,-0.044384,-0.034555,0.090202,0.018808,-0.026129,3,0,0,0,0,0,0
57.687489,11.97962,-2.015445,-0.001527,-0.095142,0,3,3926727,0.44,0,0,0,1.769369,-0.045754,-0.035228,0.089251,0.018666,-0.026007,3,0,0,0,0,0,0
57.687489,11.97962,-2.065711,-0.004123,-0.099266,0,3,3926737,0.45,0,0,0,1.799338,-0.047143,-0.035897,0.090956,0.018551,-0.025527,3,0,0,0,0,0,0
57.687489,11.97962,-2.039381,-0.006261,-0.095906,0,3,3926747,0.46,0,0,0,1.829307,-0.048546,-0.036554,0.090219,0.016808,-0.02591,3,0,0,0,0,0,0
57.687489,11.97962,-2.056137,-0.001069,-0.092088,0,3,3926757,0.47,0,0,0,1.859275,-0.049973,-0.037221,0.09067,0.018374,-0.024647,3,0,0,0,0,0,0
57.687489,11.97962,-2.052546,-0.003971,-0.098197,0,3,3926767,0.48,0,0,0,1.889243,-0.051404,-0.037856,0.090426,0.019292,-0.024758,3,0,0,0,0,0,0
57.687489,11.97962,-2.052546,-0.003971,-0.098197,0,3,3926777,0.49,0,0,0,1.919209,-0.052856,-0.038493,0.090637,0.018421,-0.025744,3,0,0,0,0,0,0
57.687489,11.97962,-2.034594,-0.002443,-0.094531,0,3,3926787,0.5,0,0,0,1.949174,-0.054339,-0.039156,0.090116,0.01743,-0.02564,3,0,0,0,0,0,0
57.687489,11.97962,-2.070499,-0.00336,-0.09163,0,3,3926797,0.51,0,0,0,1.979138,-0.055841,-0.039816,0.089907,0.017809,-0.025403,3,0,0,0,0,0,0
57.687489,11.97962,-2.039381,-0.001527,-0.091477,0,3,3926807,0.52,0,0,0,2.009102,-0.057359,-0.04047,0.091106,0.018397,-0.024072,3,0,0,0,0,0,0
57.687489,11.97962,-2.047759,0.000764,-0.095906,0,3,3926817,0.53,0,0,0,2.039065,-0.05888,-0.04109,0.090166,0.018568,-0.024772,3,0,0,0,0,0,0
57.687489,11.97962,-2.059727,0.001374,-0.093004,0,3,3926827,0.54,0,0,0,2.069026,-0.060429,-0.041728,0.090406,0.019881,-0.025271,3,0,0,0,0,0,0
57.687489,11.97962,-2.059727,0.001374,-0.093004,0,3,3926837,0.55,0,0,0,2.098987,-0.062003,-0.042378,0.090836,0.021145,-0.024709,3,0,0,0,0,0,0
57.687489,11.97962,-2.036988,-0.00168,-0.088728,0,3,3926847,0.56,0,0,0,2.128947,-0.06359,-0.043014,0.090543,0.020441,-0.02552,3,0,0,0,0,0,0
57.687489,11.97962,-2.036988,-0.00168,-0.088728,0,3,3926857,0.57,0,0,0,2.158905,-0.065206,-0.043671,0.089961,0.019996,-0.024383,3,0,0,0,0,0,0
57.687489,11.97962,-2.027413,-0.002902,-0.093768,0,3,3926867,0.58,0,0,0,2.188863,-0.066827,-0.044299,0.089581,0.019067,-0.025044,3,0,0,0,0,0,0
57.687489,11.97962,-2.066908,-0.002138,-0.090713,0,3,3926877,0.59,0,0,0,2.218819,-0.068475,-0.044944,0.090904,0.019672,-0.023747,3,0,0,0,0,0,0
57.687489,11.97962,-2.062121,-0.001527,-0.093921,0,3,3926887,0.6,0,0,0,2.248775,-0.070126,-0.045555,0.090783,0.01848,-0.02514,3,0,0,0,0,0,0
57.687489,11.97962,-2.062121,-0.001527,-0.093921,0,3,3926897,0.61,0,0,0,2.278729,-0.071813,-0.046203,0.090988,0.019072,-0.024964,3,0,0,0,0,0,0
57.687489,11.97962,-2.047759,-0.006567,-0.096211,0,3,3926907,0.62,0,0,0,2.308683,-0.073517,-0.046845,0.089909,0.017804,-0.025794,3,0,0,0,0,0,0
57.687489,11.97962,-2.047759,-0.006567,-0.096211,0,3,3926917,0.63,0,0,0,2.338634,-0.075252,-0.047509,0.090357,0.016665,-0.025457,3,0,0,0,0,0,0
57.687489,11.97962,-2.051349,-0.00504,-0.098044,0,3,3926927,0.64,0,0,0,2.368585,-0.077001,-0.048165,0.090498,0.016777,-0.024686,3,0,0,0,0,0,0
57.687489,11.97962,-2.068105,-0.00504,-0.091935,0,3,3926937,0.65,0,0,0,2.398535,-0.078761,-0.0488,0.090604,0.016441,-0.025737,3,0,0,0,0,0,0
57.687489,11.97962,-2.057334,-0.001985,-0.09728,0,3,3926947,0.66,0,0,0,2.428483,-0.080553,-0.049463,0.091142,0.016692,-0.024526,3,0,0,0,0,0,0
57.687489,11.97962,-2.070499,0.000458,-0.098807,0,3,3926957,0.67,0,0,0,2.458431,-0.082349,-0.050094,0.090923,0.017519,-0.025706,3,0,0,0,0,0,0
57.687489,11.97962,-2.0322,-0.001222,-0.093462,0,3,3926967,0.68,0,0,0,2.488377,-0.084179,-0.050756,0.091413,0.019269,-0.025955,3,0,0,0,0,0,0
57.687489,11.97962,-2.0322,-0.003665,-0.094379,0,3,3926977,0.69,0,0,0,2.518321,-0.086033,-0.051424,0.090023,0.01905,-0.025839,3,0,0,0,0,0,0
57.687489,11.97962,-2.045365,-0.002443,-0.098197,0,3,3926987,0.7,0,0,0,2.548265,-0.087905,-0.05209,0.089797,0.018311,-0.02543,3,0,0,0,0,0,0
57.687489,11.97962,-2.045365,-0.002443,-0.098197,0,3,3926997,0.71,0,0,0,2.578207,-0.089791,-0.052744,0.090295,0.018506,-0.025761,3,0,0,0,0,0,0
57.687489,11.97962,-2.050153,-0.007025,-0.096059,0,3,3927007,0.72,0,0,0,2.608148,-0.091701,-0.053407,0.0905,0.016848,-0.025537,3,0,0,0,0,0,0
57.687489,11.97962,-2.044169,0,-0.095295,0,3,3927017,0.73,0,0,0,2.638088,-0.093629,-0.054065,0.090336,0.018441,-0.025514,3,0,0,0,0,0,0
57.687489,11.97962,-2.041775,-0.000458,-0.096059,0,3,3927027,0.74,0,0,0,2.668026,-0.095576,-0.054722,0.09023,0.019212,-0.025642,3,0,0,0,0,0,0
57.687489,11.97962,-2.068105,-0.002902,-0.096364,0,3,3927037,0.75,0,0,0,2.697964,-0.097544,-0.055382,0.091153,0.01919,-0.025232,3,0,0,0,0,0,0
57.687489,11.97962,-2.051349,-0.005803,-0.093462,0,3,3927047,0.76,0,0,0,2.7279,-0.099526,-0.056031,0.090637,0.017568,-0.025239,3,0,0,0,0,0,0
57.687489,11.97962,-2.056137,0.000153,-0.096364,0,3,3927057,0.77,0,0,0,2.757835,-0.101528,-0.056681,0.0908,0.019058,-0.025506,3,0,0,0,0,0,0
57.687489,11.97962,-2.068105,-0.000611,-0.097128,0,3,3927067,0.78,0,0,0,2.787768,-0.103553,-0.057338,0.091268,0.019811,-0.025581,3,0,0,0,0,0,0
57.687489,11.97962,-2.034594,-0.004734,-0.089339,0,3,3927077,0.79,0,0,0,2.8177,-0.105599,-0.057996,0.089995,0.018172,-0.02485,3,0,0,0,0,0,0
57.687489,11.97962,-2.033397,-0.003665,-0.095753,0,3,3927087,0.8,0,0,0,2.847631,-0.107655,-0.058636,0.089843,0.017726,-0.02544,3,0,0,0,0,0,0
57.687489,11.97962,-2.034594,-0.00336,-0.097433,0,3,3927096,0.809,0,0,0,2.87756,-0.109737,-0.059291,0.089901,0.017621,-0.025818,3,0,0,0,0,0,0
57.687489,11.97962,-2.041775,-0.002596,-0.096211,0,3,3927107,0.82,0,0,0,2.907488,-0.111844,-0.059956,0.090159,0.018009,-0.025561,3,0,0,0,0,0,0
57.687489,11.97962,-2.031004,-0.004276,-0.094684,0,3,3927116,0.829,0,0,0,2.937415,-0.113968,-0.060614,0.089777,0.017364,-0.025498,3,0,0,0,0,0,0
57.687489,11.97962,-2.040578,-0.002749,-0.094531,0,3,3927127,0.84,0,0,0,2.96734,-0.116111,-0.06127,0.090062,0.017835,-0.025129,3,0,0,0,0,0,0
57.687489,11.97962,-2.045365,-0.002902,-0.096059,0,3,3927136,0.849,0,0,0,2.997264,-0.118268,-0.061917,0.090298,0.018006,-0.025379,3,0,0,0,0,0,0
57.687489,11.97962,-2.026216,-0.005651,-0.093004,0,3,3927147,0.86,0,0,0,3.027186,-0.120448,-0.062571,0.089591,0.016743,-0.025269,3,0,0,0,0,0,0
57.687489,11.97962,-2.045365,-0.007636,-0.089797,0,3,3927156,0.869,0,0,0,3.057107,-0.122646,-0.063221,0.090103,0.015789,-0.02399,3,0,0,0,0,0,0
57.687489,11.97962,-2.074089,-0.000916,-0.093615,0,3,3927167,0.88,0,0,0,3.087028,-0.124848,-0.063839,0.091291,0.018019,-0.024149,3,0,0,0,0,0,0
57.687489,11.97962,-2.057334,-0.00168,-0.09499,0,3,3927176,0.889,0,0,0,3.116947,-0.12707,-0.064461,0.090901,0.018442,-0.025238,3,0,0,0,0,0,0
57.687489,11.97962,-2.015445,-0.006109,-0.093004,0,3,3927187,0.9,0,0,0,3.146864,-0.129324,-0.06511,0.089298,0.016478,-0.025671,3,0,0,0,0,0,0
57.687489,11.97962,-2.052546,-0.002291,-0.093157,0,3,3927197,0.91,0,0,0,3.176779,-0.131603,-0.065771,0.090398,0.017849,-0.024492,3,0,0,0,0,0,0
57.687489,11.97962,-2.045365,0.000611,-0.094837,0,3,3927207,0.92,0,0,0,3.206694,-0.133887,-0.066402,0.090337,0.019297,-0.025131,3,0,0,0,0,0,0
57.687489,11.97962,-2.040578,-0.006414,-0.097128,0,3,3927216,0.929,0,0,0,3.236607,-0.136198,-0.067049,0.090171,0.017339,-0.025792,3,0,0,0,0,0,0
57.687489,11.97962,-2.042972,-0.004581,-0.092393,0,3,3927227,0.94,0,0,0,3.266517,-0.138537,-0.067713,0.090175,0.017104,-0.024895,3,0,0,0,0,0,0
57.687489,11.97962,-2.041775,-0.00504,-0.096059,0,3,3927236,0.949,0,0,0,3.296427,-0.140885,-0.068354,0.090177,0.016628,-0.025433,3,0,0,0,0,0,0
57.687489,11.97962,-2.051349,-0.006109,-0.09896,0,3,3927247,0.96,0,0,0,3.326334,-0.143258,-0.069008,0.090575,0.016032,-0.025954,3,0,0,0,0,0,0
57.687489,11.97962,-2.052546,-0.000916,-0.093462,0,3,3927256,0.969,0,0,0,3.35624,-0.145657,-0.069677,0.090625,0.017775,-0.02513,3,0,0,0,0,0,0
57.687489,11.97962,-2.059727,-0.003818,-0.094379,0,3,3927267,0.98,0,0,0,3.386145,-0.148066,-0.070324,0.090876,0.017741,-0.025028,3,0,0,0,0,0,0
57.687489,11.97962,-2.047759,-0.009621,-0.093615,0,3,3927276,0.989,0,0,0,3.416048,-0.150493,-0.070968,0.090449,0.015202,-0.025168,3,0,0,0,0,0,0
57.687489,11.97962,-2.046562,-0.003665,-0.094531,0,3,3927287,1,0,0,0,3.44595,-0.152941,-0.071616,0.090384,0.016069,-0.025213,3,0,0,0,0,0,0
57.687489,11.97962,-2.045365,-0.003207,-0.099876,0,3,3927296,1.009,0,0,0,3.47585,-0.155409,-0.072265,0.090418,0.016638,-0.026269,3,0,0,0,0,0,0
57.687489,11.97962,-2.057334,-0.002443,-0.098197,0,3,3927307,1.02,0,0,0,3.505748,-0.15791,-0.072941,0.090846,0.017562,-0.025985,3,0,0,0,0,0,0
57.687489,11.97962,-2.053743,-0.003665,-0.097128,0,3,3927316,1.029,0,0,0,3.535644,-0.160428,-0.07361,0.090758,0.017482,-0.025953,3,0,0,0,0,0,0
57.687489,11.979618,-2.040578,-0.006414,-0.100182,0,3,3927327,1.04,26,26,26,3.565538,-0.162965,-0.074278,0.090309,0.016086,-0.026739,3,0,0,0,0,0,0
57.687489,11.979618,-2.042972,-0.004734,-0.091477,0,3,3927337,1.05,26,26,26,3.59543,-0.165532,-0.074967,0.090202,0.016316,-0.024979,3,0,0,0,0,0,0
57.687489,11.979618,-2.021429,-0.001985,-0.09499,0,3,3927347,1.06,26,26,26,3.625322,-0.168097,-0.07561,0.089449,0.017028,-0.025603,3,0,0,0,0,0,0
57.687489,11.979618,-2.045365,-0.00336,-0.094531,0,3,3927356,1.069,26,26,26,3.655211,-0.17069,-0.076269,0.09018,0.017566,-0.024935,3,0,0,0,0,0,0
57.687489,11.979618,-2.063318,-0.006109,-0.096517,0,3,3927367,1.08,26,26,26,3.6851,-0.173293,-0.076911,0.090954,0.016838,-0.02516,3,0,0,0,0,0,0
57.687489,11.979618,-2.039381,-0.001985,-0.090866,0,3,3927377,1.09,26,26,26,3.714986,-0.175919,-0.077559,0.090152,0.017552,-0.024829,3,0,0,0,0,0,0
57.687489,11.979618,-2.047759,-0.004429,-0.097738,0,3,3927387,1.1,26,26,26,3.744872,-0.17856,-0.078198,0.090416,0.017197,-0.025635,3,0,0,0,0,0,0
57.687489,11.979618,-2.038184,-0.003054,-0.093157,0,3,3927397,1.11,26,26,26,3.774754,-0.18123,-0.078858,0.09006,0.017442,-0.02519,3,0,0,0,0,0,0
57.687489,11.979618,-2.063318,-0.003054,-0.088575,0,3,3927407,1.12,26,26,26,3.804636,-0.183914,-0.079506,0.090822,0.018201,-0.023611,3,0,0,0,0,0,0
57.687489,11.979618,-2.065711,-0.00168,-0.091172,0,3,3927417,1.13,26,26,26,3.834517,-0.186598,-0.080114,0.091053,0.018891,-0.024033,3,0,0,0,0,0,0
57.687489,11.979618,-2.051349,-0.002291,-0.091324,0,3,3927427,1.14,26,26,26,3.864396,-0.189305,-0.080733,0.090683,0.01917,-0.025672,3,0,0,0,0,0,0
57.687489,11.979618,-2.051349,-0.002291,-0.091324,0,3,3927437,1.15,26,26,26,3.894272,-0.192051,-0.081394,0.090546,0.01913,-0.024727,3,0,0,0,0,0,0
57.687489,11.979618,-2.040578,-0.002902,-0.093157,0,3,3927447,1.16,26,26,26,3.924147,-0.194805,-0.082031,0.090148,0.018634,-0.025005,3,0,0,0,0,0,0
57.687489,11.979618,-2.078876,-0.007025,-0.093921,0,3,3927457,1.17,26,26,26,3.95402,-0.197582,-0.082674,0.09021,0.017531,-0.025403,3,0,0,0,0,0,0
57.687489,11.979618,-2.034594,0.000458,-0.09728,0,3,3927467,1.18,26,26,26,3.983891,-0.200383,-0.083328,0.09148,0.016797,-0.024498,3,0,0,0,0,0,0
57.687489,11.979618,-2.034594,0.000458,-0.09728,0,3,3927477,1.19,26,26,26,4.013761,-0.203192,-0.083959,0.090171,0.018065,-0.026232,3,0,0,0,0,0,0
57.687489,11.979618,-2.033397,-0.004429,-0.089797,0,3,3927487,1.2,26,26,26,4.043627,-0.206041,-0.084634,0.089795,0.017531,-0.024655,3,0,0,0,0,0,0
57.687489,11.979618,-2.041775,-0.00168,-0.094684,0,3,3927497,1.21,26,26,26,4.073493,-0.208891,-0.085269,0.0901,0.018325,-0.024956,3,0,0,0,0,0,0
57.687489,11.979618,-2.065711,-0.004581,-0.095753,0,3,3927507,1.22,26,26,26,4.103357,-0.211764,-0.085912,0.091019,0.017975,-0.024944,3,0,0,0,0,0,0
57.687489,11.979618,-2.056137,-0.004887,-0.094684,0,3,3927517,1.23,26,26,26,4.133219,-0.214656,-0.086554,0.090809,0.017262,-0.025269,3,0,0,0,0,0,0
57.687489,11.979618,-2.065711,-0.003054,-0.095448,0,3,3927527,1.24,26,26,26,4.163078,-0.217571,-0.087204,0.091146,0.017758,-0.025236,3,0,0,0,0,0,0
57.687489,11.979618,-2.046562,-0.001374,-0.098655,0,3,3927537,1.25,26,26,26,4.192936,-0.220505,-0.087854,0.090571,0.018221,-0.026329,3,0,0,0,0,0,0
57.687489,11.979618,-2.041775,-0.002596,-0.093768,0,3,3927547,1.26,26,26,26,4.222791,-0.223473,-0.088532,0.090236,0.018276,-0.025471,3,0,0,0,0,0,0
57.687489,11.979618,-2.064515,-0.003971,-0.096517,0,3,3927557,1.27,26,26,26,4.252645,-0.226449,-0.089188,0.091023,0.018132,-0.025285,3,0,0,0,0,0,0
57.687489,11.979618,-2.08127,-0.002596,-0.096364,0,3,3927567,1.28,26,26,26,4.282497,-0.229443,-0.089839,0.091755,0.018642,-0.025238,3,0,0,0,0,0,0
57.687489,11.979618,-2.041775,-0.003207,-0.093157,0,3,3927577,1.29,26,26,26,4.312347,-0.232456,-0.090488,0.090399,0.017935,-0.025587,3,0,0,0,0,0,0
57.687489,11.979618,-2.050153,-0.001833,-0.094226,0,3,3927587,1.3,26,26,26,4.342195,-0.235493,-0.091147,0.090508,0.018541,-0.025176,3,0,0,0,0,0,0
57.687489,11.979618,-2.022626,-0.003971,-0.094226,0,3,3927597,1.31,26,26,26,4.372041,-0.238544,-0.091795,0.089519,0.017566,-0.025612,3,0,0,0,0,0,0
57.687489,11.979618,-2.036988,-0.001222,-0.097128,0,3,3927607,1.32,26,26,26,4.401884,-0.24162,-0.092455,0.089941,0.018503,-0.025622,3,0,0,0,0,0,0
57.687489,11.979618,-2.053743,-0.002749,-0.096211,0,3,3927617,1.33,26,26,26,4.431726,-0.244715,-0.093114,0.090589,0.018662,-0.025328,3,0,0,0,0,0,0
57.687489,11.979618,-2.02861,-0.001985,-0.089034,0,3,3927627,1.34,26,26,26,4.461566,-0.247827,-0.093766,0.089673,0.018631,-0.024556,3,0,0,0,0,0,0
57.687489,11.979618,-2.062121,0,-0.090713,0,3,3927637,1.35,26,26,26,4.491405,-0.250948,-0.094399,0.090749,0.020115,-0.023755,3,0,0,0,0,0,0
57.687489,11.979618,-2.053743,-0.003207,-0.092546,0,3,3927647,1.36,26,26,26,4.521243,-0.254078,-0.09501,0.090624,0.019246,-0.024523,3,0,0,0,0,0,0
57.687489,11.979618,-2.048956,-0.003054,-0.091783,0,3,3927657,1.37,26,26,26,4.551078,-0.257236,-0.095641,0.090435,0.018789,-0.024576,3,0,0,0,0,0,0
57.687489,11.979618,-2.052546,-0.003207,-0.093157,0,3,3927667,1.38,26,26,26,4.580911,-0.260414,-0.096274,0.090557,0.018531,-0.024716,3,0,0,0,0,0,0
57.687489,11.979618,-2.05853,-0.004734,-0.089034,0,3,3927676,1.389,26,26,26,4.610741,-0.263612,-0.096911,0.090721,0.017956,-0.023884,3,0,0,0,0,0,0
57.687489,11.979618,-2.050153,0.000916,-0.097586,0,3,3927687,1.4,26,26,26,4.640571,-0.266819,-0.097525,0.090598,0.019375,-0.02558,3,0,0,0,0,0,0
57.687489,11.979618,-2.040578,-0.000305,-0.093921,0,3,3927696,1.409,26,26,26,4.670397,-0.270065,-0.098184,0.090194,0.019803,-0.025368,3,0,0,0,0,0,0
57.687489,11.979618,-2.050153,0.000153,-0.096975,0,3,3927707,1.42,26,26,26,4.70022,-0.273329,-0.098837,0.090519,0.020423,-0.02559,3,0,0,0,0,0,0
57.687489,11.979618,-2.083664,-0.005651,-0.092088,0,3,3927717,1.43,26,26,26,4.730042,-0.276614,-0.099496,0.091675,0.019136,-0.024235,3,0,0,0,0,0,0
57.687489,11.979618,-2.05494,-0.003054,-0.09499,0,3,3927726,1.439,26,26,26,4.759863,-0.279902,-0.10012,0.090871,0.018442,-0.02546,3,0,0,0,0,0,0
57.687489,11.979618,-2.056137,-0.001374,-0.094226,0,3,3927736,1.449,26,26,26,4.78968,-0.283225,-0.100775,0.090799,0.018992,-0.025237,3,0,0,0,0,0,0
57.687489,11.979618,-2.069302,0.001069,-0.095295,0,3,3927746,1.459,26,26,26,4.819495,-0.286564,-0.101425,0.091283,0.020481,-0.025138,3,0,0,0,0,0,0
57.687489,11.979618,-2.047759,-0.001527,-0.094226,0,3,3927756,1.469,26,26,26,4.849308,-0.289921,-0.102072,0.090555,0.019901,-0.025486,3,0,0,0,0,0,0
57.687489,11.979618,-2.048956,0.002291,-0.094531,0,3,3927767,1.48,26,26,26,4.879119,-0.293302,-0.102728,0.090506,0.021267,-0.025304,3,0,0,0,0,0,0
57.687489,11.979618,-2.042972,-0.003207,-0.094684,0,3,3927777,1.49,26,26,26,4.908928,-0.2967,-0.10338,0.090256,0.019848,-0.025386,3,0,0,0,0,0,0
57.687489,11.979618,-2.0322,-0.002291,-0.09728,0,3,3927787,1.5,26,26,26,4.938734,-0.300119,-0.104033,0.089879,0.019174,-0.025994,3,0,0,0,0,0,0
57.687489,11.979618,-2.046562,-0.001374,-0.097128,0,3,3927796,1.509,26,26,26,4.968537,-0.303564,-0.104703,0.090346,0.019496,-0.025694,3,0,0,0,0,0,0
57.687489,11.979618,-2.048956,-0.005803,-0.097586,0,3,3927806,1.519,26,26,26,4.998339,-0.307026,-0.105364,0.090492,0.01785,-0.025867,3,0,0,0,0,0,0
57.687489,11.979618,-2.041775,0,-0.095753,0,3,3927816,1.529,26,26,26,5.028138,-0.31051,-0.10603,0.09026,0.019014,-0.025722,3,0,0,0,0,0,0
57.687489,11.979618,-2.074089,-0.007636,-0.093004,0,3,3927826,1.539,26,26,26,5.057934,-0.314012,-0.106692,0.0913,0.017401,-0.024501,3,0,0,0,0,0,0
57.687489,11.979618,-2.045365,-0.002749,-0.094531,0,3,3927836,1.549,26,26,26,5.08773,-0.317518,-0.107323,0.090468,0.017477,-0.025438,3,0,0,0,0,0,0
57.687489,11.979618,-2.05494,-0.004123,-0.094837,0,3,3927846,1.559,26,26,26,5.117523,-0.321055,-0.107978,0.09069,0.017407,-0.025206,3,0,0,0,0,0,0
57.687489,11.979618,-2.056137,-0.001069,-0.093615,0,3,3927856,1.569,26,26,26,5.147314,-0.324608,-0.108627,0.090759,0.018537,-0.024981,3,0,0,0,0,0,0
57.687489,11.979618,-2.046562,-0.002596,-0.099266,0,3,3927867,1.58,26,26,26,5.177102,-0.328178,-0.10927,0.090506,0.018294,-0.026239,3,0,0,0,0,0,0
57.687489,11.979618,-2.033397,-0.004429,-0.09499,0,3,3927877,1.59,26,26,26,5.206887,-0.331783,-0.109945,0.089935,0.017447,-0.025811,3,0,0,0,0,0,0
57.687489,11.979618,-2.040578,-0.003512,-0.091935,0,3,3927887,1.6,26,26,26,5.236669,-0.335402,-0.11061,0.090048,0.017624,-0.024755,3,0,0,0,0,0,0
57.687489,11.979618,-2.025019,-0.002291,-0.095448,0,3,3927897,1.61,26,26,26,5.266451,-0.339028,-0.111247,0.089551,0.017781,-0.025523,3,0,0,0,0,0,0
57.687489,11.979618,-2.035791,-0.002749,-0.091783,0,3,3927907,1.62,26,26,26,5.296229,-0.342683,-0.111904,0.089807,0.018139,-0.02459,3,0,0,0,0,0,0
57.687489,11.979618,-2.048956,-0.001374,-0.094073,0,3,3927917,1.63,26,26,26,5.326007,-0.346345,-0.112537,0.090349,0.018941,-0.024703,3,0,0,0,0,0,0
57.687489,11.979618,-2.042972,-0.002902,-0.093157,0,3,3927927,1.64,26,26,26,5.355781,-0.350028,-0.113173,0.090419,0.018708,-0.024803,3,0,0,0,0,0,0
57.687489,11.979618,-2.050153,-0.002138,-0.096059,0,3,3927937,1.65,26,26,26,5.385554,-0.353731,-0.113812,0.090216,0.018457,-0.024927,3,0,0,0,0,0,0
57.687489,11.979618,-2.070499,-0.003971,-0.08995,0,3,3927947,1.66,26,26,26,5.415323,-0.357454,-0.114454,0.090494,0.01871,-0.025315,3,0,0,0,0,0,0
57.687489,11.979618,-2.044169,-0.001222,-0.09499,0,3,3927957,1.67,26,26,26,5.44509,-0.361202,-0.115105,0.091169,0.018584,-0.023965,3,0,0,0,0,0,0
57.687489,11.979618,-2.045365,-0.003054,-0.09331,0,3,3927967,1.68,26,26,26,5.474857,-0.364952,-0.115722,0.090405,0.018769,-0.025379,3,0,0,0,0,0,0
57.687489,11.979618,-2.045365,-0.003054,-0.09331,0,3,3927977,1.69,26,26,26,5.504618,-0.368738,-0.116376,0.090311,0.0185,-0.02504,3,0,0,0,0,0,0
57.687489,11.979618,-2.052546,-0.002443,-0.092699,0,3,3927987,1.7,26,26,26,5.534378,-0.372539,-0.11702,0.090895,0.02123,-0.02433,3,0,0,0,0,0,0
57.687489,11.979618,-2.052546,-0.002443,-0.092699,0,3,3927997,1.71,26,26,26,5.564137,-0.376351,-0.117647,0.090618,0.020183,-0.024768,3,0,0,0,0,0,0
57.687489,11.979618,-2.056137,-0.002749,-0.094837,0,3,3928007,1.72,26,26,26,5.593892,-0.380186,-0.118284,0.089993,0.017709,-0.025403,3,0,0,0,0,0,0
57.687489,11.979618,-2.05494,-0.004276,-0.093004,0,3,3928017,1.73,26,26,26,5.623644,-0.384049,-0.118938,0.09066,0.018231,-0.024985,3,0,0,0,0,0,0
57.687489,11.979618,-2.053743,-0.005498,-0.091019,0,3,3928027,1.74,26,26,26,5.653395,-0.387926,-0.119582,0.090681,0.017778,-0.024825,3,0,0,0,0,0,0
57.687489,11.979618,-2.053743,-0.005498,-0.091019,0,3,3928037,1.75,26,26,26,5.683143,-0.39182,-0.120221,0.090603,0.017043,-0.024429,3,0,0,0,0,0,0
57.687489,11.979618,-2.051349,-0.005345,-0.09728,0,3,3928047,1.76,26,26,26,5.712889,-0.395727,-0.12085,0.090497,0.017083,-0.024785,3,0,0,0,0,0,0
57.687489,11.979618,-2.051349,-0.005345,-0.09728,0,3,3928057,1.77,26,26,26,5.742632,-0.399659,-0.121488,0.090591,0.016532,-0.025611,3,0,0,0,0,0,0
57.687489,11.979618,-2.069302,0.001222,-0.095448,0,3,3928067,1.78,26,26,26,5.772371,-0.403619,-0.122147,0.090763,0.016408,-0.026419,3,0,0,0,0,0,0
57.687489,11.979618,-2.069302,0.001222,-0.095448,0,3,3928077,1.79,26,26,26,5.802106,-0.40761,-0.122827,0.091307,0.019036,-0.025408,3,0,0,0,0,0,0
57.687489,11.979618,-2.060924,-0.005192,-0.090713,0,3,3928087,1.8,26,26,26,5.83184,-0.411607,-0.123481,0.09118,0.020083,-0.025287,3,0,0,0,0,0,0
57.687489,11.979618,-2.051349,-0.002902,-0.097433,0,3,3928097,1.81,26,26,26,5.861572,-0.415623,-0.124133,0.090941,0.018572,-0.02456,3,0,0,0,0,0,0
57.687489,11.979618,-2.051349,-0.002902,-0.097433,0,3,3928107,1.82,26,26,26,5.891302,-0.419649,-0.124765,0.090669,0.018252,-0.025775,3,0,0,0,0,0,0
57.687489,11.979618,-2.035791,-0.002902,-0.091019,0,3,3928116,1.829,26,26,26,5.921028,-0.423709,-0.125428,0.089981,0.018093,-0.024952,3,0,0,0,0,0,0
57.687489,11.979618,-2.042972,-0.001527,-0.098807,0,3,3928127,1.84,26,26,26,5.950753,-0.427778,-0.126071,0.090246,0.018604,-0.025888,3,0,0,0,0,0,0
57.687489,11.979618,-2.057334,-0.005803,-0.094837,0,3,3928137,1.85,26,26,26,5.980473,-0.431879,-0.126737,0.090737,0.017554,-0.025181,3,0,0,0,0,0,0
57.687489,11.979618,-2.05853,-0.003971,-0.095448,0,3,3928147,1.86,26,26,26,6.010192,-0.43599,-0.127386,0.09087,0.017473,-0.025314,3,0,0,0,0,0,0
57.687489,11.979618,-2.021429,-0.003665,-0.093462,0,3,3928156,1.869,26,26,26,6.039907,-0.440122,-0.128037,0.089529,0.016946,-0.025656,3,0,0,0,0,0,0
57.687489,11.979618,-2.05494,-0.00336,-0.090713,0,3,3928167,1.88,26,26,26,6.06962,-0.444278,-0.128698,0.090476,0.017753,-0.024064,3,0,0,0,0,0,0
57.687489,11.979618,-2.072892,-0.000611,-0.096822,0,3,3928176,1.889,26,26,26,6.099332,-0.448433,-0.129317,0.09136,0.019129,-0.024975,3,0,0,0,0,0,0
57.687489,11.979618,-2.060924,-0.001222,-0.094837,0,3,3928187,1.9,26,26,26,6.129041,-0.452618,-0.12996,0.091052,0.019377,-0.025364,3,0,0,0,0,0,0
57.687489,11.979618,-2.0322,-0.003818,-0.096517,0,3,3928196,1.909,26,26,26,6.158746,-0.456828,-0.130613,0.089992,0.018094,-0.02616,3,0,0,0,0,0,0
57.687489,11.979618,-2.047759,-0.004276,-0.092088,0,3,3928207,1.92,26,26,26,6.188447,-0.461066,-0.131287,0.090319,0.017834,-0.024765,3,0,0,0,0,0,0
57.687489,11.979618,-2.039381,-0.00168,-0.090561,0,3,3928216,1.929,26,26,26,6.218147,-0.465308,-0.131924,0.090034,0.018436,-0.024427,3,0,0,0,0,0,0
57.687489,11.979618,-2.065711,-0.004887,-0.094837,0,3,3928227,1.94,26,26,26,6.247845,-0.469563,-0.132553,0.090983,0.01794,-0.024619,3,0,0,0,0,0,0
57.687489,11.979618,-2.038184,-0.003971,-0.093462,0,3,3928236,1.949,26,26,26,6.277541,-0.47384,-0.133187,0.090136,0.017325,-0.025255,3,0,0,0,0,0,0
57.687489,11.979618,-2.040578,-0.003665,-0.096059,0,3,3928247,1.96,26,26,26,6.307232,-0.478144,-0.133837,0.090139,0.017306,-0.025519,3,0,0,0,0,0,0
57.687489,11.979618,-2.039381,-0.004276,-0.098655,0,3,3928256,1.969,26,26,26,6.33692,-0.48247,-0.134494,0.090141,0.016981,-0.02611,3,0,0,0,0,0,0
57.687489,11.979618,-2.040578,-0.003665,-0.096211,0,3,3928267,1.98,26,26,26,6.366605,-0.486823,-0.135166,0.090157,0.017132,-0.025742,3,0,0,0,0,0,0
57.687489,11.979618,-2.040578,-0.00733,-0.094226,0,3,3928277,1.99,26,26,26,6.396287,-0.491192,-0.135829,0.090105,0.015821,-0.025279,3,0,0,0,0,0,0
57.687489,11.979618,-2.062121,-0.002596,-0.094684,0,3,3928287,2,26,26,26,6.425967,-0.495575,-0.13648,0.090894,0.017215,-0.02486,3,0,0,0,0,0,0
57.687489,11.979618,-2.057334,-0.000764,-0.095753,0,3,3928297,2.01,26,26,26,6.455644,-0.499971,-0.13712,0.090866,0.018435,-0.025383,3,0,0,0,0,0,0
57.687489,11.979618,-2.056137,-0.005192,-0.100335,0,3,3928307,2.02,26,26,26,6.485318,-0.504393,-0.137773,0.090881,0.01734,-0.026416,3,0,0,0,0,0,0
57.687489,11.979618,-2.026216,-0.005192,-0.097128,0,3,3928317,2.03,26,26,26,6.514988,-0.508848,-0.138454,0.089776,0.016303,-0.026544,3,0,0,0,0,0,0
57.6875,11.979619,-2.042972,-0.003054,-0.096364,0,3,3928327,2.04,52,52,52,6.544654,-0.513324,-0.139137,0.090197,0.017115,-0.025677,3,0,0,0,0,0,0
57.6875,11.979619,-2.050153,0.001833,-0.094073,0,3,3928337,2.05,52,52,52,6.574319,-0.51781,-0.139798,0.090491,0.019538,-0.02508,3,0,0,0,0,0,0
57.6875,11.979619,-2.063318,-0.00168,-0.094531,0,3,3928347,2.06,52,52,52,6.603981,-0.522307,-0.140444,0.090989,0.019734,-0.024936,3,0,0,0,0,0,0
57.6875,11.979619,-2.046562,-0.001069,-0.091783,0,3,3928356,2.069,52,52,52,6.633641,-0.526822,-0.141086,0.090423,0.01974,-0.02486,3,0,0,0,0,0,0
57.6875,11.979619,-2.040578,-0.002596,-0.094684,0,3,3928367,2.08,52,52,52,6.663298,-0.531355,-0.141726,0.090155,0.019124,-0.025287,3,0,0,0,0,0,0
57.6875,11.979619,-2.05853,-0.005803,-0.093615,0,3,3928377,2.09,52,52,52,6.692952,-0.535913,-0.142377,0.090734,0.017917,-0.024751,3,0,0,0,0,0,0
57.6875,11.979619,-2.078876,-0.002749,-0.095753,0,3,3928387,2.1,52,52,52,6.722604,-0.540483,-0.143014,0.091602,0.018482,-0.024922,3,0,0,0,0,0,0
57.6875,11.979619,-2.05853,0,-0.09499,0,3,3928396,2.109,52,52,52,6.752252,-0.545074,-0.143655,0.091015,0.01935,-0.025519,3,0,0,0,0,0,0
57.6875,11.979619,-2.039381,-0.003054,-0.101098,0,3,3928407,2.12,52,52,52,6.781896,-0.549692,-0.144312,0.090325,0.018397,-0.026952,3,0,0,0,0,0,0
57.6875,11.979619,-2.051349,-0.004276,-0.097891,0,3,3928416,2.129,52,52,52,6.811535,-0.554347,-0.145006,0.090611,0.017876,-0.026155,3,0,0,0,0,0,0
57.6875,11.979619,-2.048956,-0.002291,-0.094073,0,3,3928427,2.14,52,52,52,6.841172,-0.559012,-0.14568,0.090505,0.018279,-0.025381,3,0,0,0,0,0,0
57.6875,11.979619,-2.060924,-0.004429,-0.094073,0,3,3928437,2.15,52,52,52,6.870807,-0.563688,-0.146333,0.090895,0.01788,-0.024958,3,0,0,0,0,0,0
57.6875,11.979619,-2.040578,-0.003054,-0.095753,0,3,3928447,2.16,52,52,52,6.90044,-0.568378,-0.146976,0.090255,0.017668,-0.025702,3,0,0,0,0,0,0
57.6875,11.979619,-2.047759,-0.005345,-0.096822,0,3,3928457,2.17,52,52,52,6.930068,-0.573097,-0.147637,0.090428,0.016946,-0.025695,3,0,0,0,0,0,0
57.6875,11.979619,-2.035791,-0.00733,-0.096211,0,3,3928467,2.18,52,52,52,6.959693,-0.577834,-0.148299,0.09001,0.015502,-0.02585,3,0,0,0,0,0,0
57.6875,11.979619,-2.031004,-0.004123,-0.094837,0,3,3928477,2.19,52,52,52,6.989315,-0.582594,-0.148964,0.089767,0.015956,-0.025522,3,0,0,0,0,0,0
57.6875,11.979619,-2.064515,-0.004429,-0.097891,0,3,3928487,2.2,52,52,52,7.018935,-0.587369,-0.149621,0.090973,0.016643,-0.025366,3,0,0,0,0,0,0
57.6875,11.979619,-2.042972,-0.006261,-0.095906,0,3,3928497,2.21,52,52,52,7.048551,-0.592161,-0.150274,0.090353,0.0157,-0.025809,3,0,0,0,0,0,0
57.6875,11.979619,-2.041775,-0.004581,-0.096517,0,3,3928507,2.22,52,52,52,7.078164,-0.596979,-0.150939,0.090235,0.015939,-0.025794,3,0,0,0,0,0,0
57.6875,11.979619,-2.059727,-0.003207,-0.094226,0,3,3928517,2.23,52,52,52,7.107773,-0.601816,-0.151603,0.090828,0.017009,-0.024981,3,0,0,0,0,0,0
57.6875,11.979619,-2.052546,-0.000916,-0.098655,0,3,3928527,2.24,52,52,52,7.137381,-0.606662,-0.152246,0.090733,0.018121,-0.026035,3,0,0,0,0,0,0
57.6875,11.979619,-2.021429,-0.00672,-0.100182,0,3,3928537,2.25,52,52,52,7.166983,-0.611541,-0.152916,0.089615,0.016045,-0.027084,3,0,0,0,0,0,0
57.6875,11.979619,-2.044169,-0.006109,-0.097738,0,3,3928547,2.26,52,52,52,7.19658,-0.616452,-0.153614,0.090382,0.016117,-0.025599,3,0,0,0,0,0,0
57.6875,11.979619,-2.044169,-0.006109,-0.097738,0,3,3928557,2.27,52,52,52,7.226177,-0.621366,-0.154273,0.090334,0.015586,-0.025959,3,0,0,0,0,0,0
57.6875,11.979619,-2.056137,-0.004734,-0.098655,0,3,3928567,2.28,52,52,52,7.25577,-0.626304,-0.154941,0.090501,0.014628,-0.026495,3,0,0,0,0,0,0
57.6875,11.979619,-2.056137,-0.004734,-0.098655,0,3,3928577,2.29,52,52,52,7.285358,-0.631268,-0.155623,0.090824,0.015407,-0.026172,3,0,0,0,0,0,0
57.6875,11.979619,-2.039381,-0.000611,-0.094837,0,3,3928587,2.3,52,52,52,7.314944,-0.636248,-0.156297,0.089976,0.016789,-0.025552,3,0,0,0,0,0,0
57.6875,11.979619,-2.039381,-0.000611,-0.094837,0,3,3928597,2.31,52,52,52,7.344527,-0.64124,-0.156955,0.090068,0.018242,-0.025299,3,0,0,0,0,0,0
57.6875,11.979619,-2.048956,-0.00672,-0.100793,0,3,3928607,2.32,52,52,52,7.374108,-0.646249,-0.157606,0.090592,0.017929,-0.025216,3,0,0,0,0,0,0
57.6875,11.979619,-2.048956,-0.00672,-0.100793,0,3,3928617,2.33,52,52,52,7.403686,-0.651276,-0.158255,0.090577,0.016373,-0.026481,3,0,0,0,0,0,0
57.6875,11.979619,-2.041775,-0.005803,-0.09499,0,3,3928627,2.34,52,52,52,7.433257,-0.656338,-0.158937,0.091807,0.018221,-0.024868,3,0,0,0,0,0,0
57.6875,11.979619,-2.041775,-0.005803,-0.09499,0,3,3928637,2.35,52,52,52,7.462829,-0.6614,-0.159577,0.090422,0.016589,-0.025883,3,0,0,0,0,0,0
57.6875,11.979619,-2.046562,-0.003971,-0.095906,0,3,3928647,2.36,52,52,52,7.492395,-0.666494,-0.160244,0.090587,0.017811,-0.026024,3,0,0,0,0,0,0
57.6875,11.979619,-2.053743,-0.000153,-0.095906,0,3,3928657,2.37,52,52,52,7.521958,-0.671609,-0.160914,0.090436,0.017498,-0.025743,3,0,0,0,0,0,0
57.6875,11.979619,-2.059727,-0.002749,-0.096822,0,3,3928667,2.38,52,52,52,7.551518,-0.67674,-0.161576,0.090681,0.018946,-0.02549,3,0,0,0,0,0,0
57.6875,11.979619,-2.059727,-0.002749,-0.096822,0,3,3928677,2.39,52,52,52,7.581074,-0.681888,-0.162233,0.090933,0.018808,-0.025616,3,0,0,0,0,0,0
57.6875,11.979619,-2.069302,-0.003207,-0.091172,0,3,3928687,2.4,52,52,52,7.610628,-0.687057,-0.162892,0.091226,0.018785,-0.024471,3,0,0,0,0,0,0
57.6875,11.979619,-2.065711,-0.00336,-0.092699,0,3,3928697,2.41,52,52,52,7.64018,-0.69223,-0.163522,0.091151,0.01848,-0.024693,3,0,0,0,0,0,0
57.6875,11.979619,-2.022626,-0.001069,-0.094684,0,3,3928707,2.42,52,52,52,7.669728,-0.697425,-0.164158,0.089636,0.018453,-0.025851,3,0,0,0,0,0,0
57.6875,11.979619,-2.046562,-0.001527,-0.095142,0,3,3928717,2.43,52,52,52,7.699271,-0.702654,-0.164823,0.090273,0.01911,-0.025171,3,0,0,0,0,0,0
57.6875,11.979619,-2.052546,-0.000764,-0.09163,0,3,3928727,2.44,52,52,52,7.728812,-0.707894,-0.165471,0.090525,0.01979,-0.024485,3,0,0,0,0,0,0
57.6875,11.979619,-2.068105,-0.003207,-0.098807,0,3,3928737,2.45,52,52,52,7.75835,-0.713144,-0.166102,0.09122,0.019225,-0.025573,3,0,0,0,0,0,0
57.6875,11.979619,-2.062121,-0.002749,-0.096059,0,3,3928747,2.46,52,52,52,7.787883,-0.718426,-0.16676,0.091096,0.018893,-0.025662,3,0,0,0,0,0,0
57.6875,11.979619,-2.039381,-0.002596,-0.092699,0,3,3928757,2.47,52,52,52,7.817413,-0.723729,-0.167421,0.090206,0.018496,-0.025369,3,0,0,0,0,0,0
57.6875,11.979619,-2.046562,-0.002596,-0.096669,0,3,3928767,2.48,52,52,52,7.846939,-0.729048,-0.168074,0.090379,0.018503,-0.025593,3,0,0,0,0,0,0
57.6875,11.979619,-2.068105,-0.001833,-0.090561,0,3,3928777,2.49,52,52,52,7.876462,-0.734389,-0.168733,0.091088,0.019282,-0.02414,3,0,0,0,0,0,0
57.6875,11.979619,-2.048956,-0.001527,-0.094531,0,3,3928787,2.5,52,52,52,7.905984,-0.739731,-0.169354,0.090556,0.019194,-0.025216,3,0,0,0,0,0,0
57.6875,11.979619,-2.034594,-0.004276,-0.096822,0,3,3928797,2.51,52,52,52,7.9355,-0.745105,-0.170004,0.089997,0.017964,-0.025943,3,0,0,0,0,0,0
57.6875,11.979619,-2.041775,-0.00168,-0.094226,0,3,3928807,2.52,52,52,52,7.965012,-0.750508,-0.170671,0.090147,0.018604,-0.02524,3,0,0,0,0,0,0
57.6875,11.979619,-2.053743,-0.004429,-0.094684,0,3,3928817,2.53,52,52,52,7.994521,-0.755921,-0.171321,0.090584,0.018032,-0.025027,3,0,0,0,0,0,0
57.6875,11.979619,-2.041775,-0.004429,-0.09163,0,3,3928827,2.54,52,52,52,8.024027,-0.761351,-0.171966,0.090174,0.017436,-0.024764,3,0,0,0,0,0,0
57.6875,11.979619,-2.05853,-0.004429,-0.093921,0,3,3928837,2.55,52,52,52,8.053531,-0.766796,-0.172603,0.090743,0.017394,-0.024692,3,0,0,0,0,0,0
57.6875,11.979619,-2.048956,-0.000916,-0.094226,0,3,3928847,2.56,52,52,52,8.083031,-0.772259,-0.173239,0.090511,0.018416,-0.025132,3,0,0,0,0,0,0
57.6875,11.979619,-2.0322,-0.004734,-0.095448,0,3,3928857,2.57,52,52,52,8.112526,-0.777747,-0.173886,0.08988,0.017317,-0.025675,3,0,0,0,0,0,0
57.6875,11.979619,-2.05853,-0.003512,-0.094684,0,3,3928867,2.58,52,52,52,8.142017,-0.783261,-0.174547,0.090727,0.017783,-0.024928,3,0,0,0,0,0,0
57.6875,11.979619,-2.027413,-0.002749,-0.08995,0,3,3928876,2.589,52,52,52,8.171506,-0.788784,-0.175189,0.08966,0.017701,-0.024719,3,0,0,0,0,0,0
57.6875,11.979619,-2.053743,-0.002749,-0.093004,0,3,3928887,2.6,52,52,52,8.200992,-0.794324,-0.175825,0.090477,0.018292,-0.024378,3,0,0,0,0,0,0
57.6875,11.979619,-2.053743,-0.004123,-0.09499,0,3,3928896,2.609,52,52,52,8.230475,-0.799878,-0.176453,0.090631,0.017825,-0.025025,3,0,0,0,0,0,0
57.6875,11.979619,-2.068105,-0.002596,-0.094837,0,3,3928906,2.619,52,52,52,8.259953,-0.805459,-0.177097,0.091189,0.01837,-0.02495,3,0,0,0,0,0,0
57.6875,11.979619,-2.044169,-0.001527,-0.092088,0,3,3928916,2.629,52,52,52,8.289427,-0.811058,-0.177739,0.090377,0.018634,-0.02504,3,0,0,0,0,0,0
57.6875,11.979619,-2.051349,-0.002749,-0.096211,0,3,3928926,2.639,52,52,52,8.318898,-0.816678,-0.178384,0.090565,0.018556,-0.025416,3,0,0,0,0,0,0
57.6875,11.979619,-2.059727,-0.00672,-0.094684,0,3,3928936,2.649,52,52,52,8.348365,-0.82232,-0.179038,0.090862,0.017103,-0.025132,3,0,0,0,0,0,0
57.6875,11.979619,-2.046562,-0.006261,-0.091783,0,3,3928947,2.66,52,52,52,8.377828,-0.827979,-0.179685,0.090391,0.016163,-0.024843,3,0,0,0,0,0,0
57.6875,11.979619,-2.059727,-0.00504,-0.095906,0,3,3928957,2.67,52,52,52,8.407288,-0.833653,-0.180325,0.090856,0.016299,-0.025161,3,0,0,0,0,0,0
57.6875,11.979619,-2.044169,-0.002443,-0.094226,0,3,3928967,2.68,52,52,52,8.436744,-0.83935,-0.180973,0.090362,0.017068,-0.025363,3,0,0,0,0,0,0
57.6875,11.979619,-2.023823,-0.002902,-0.092241,0,3,3928976,2.689,52,52,52,8.466196,-0.845068,-0.181626,0.089517,0.017209,-0.025178,3,0,0,0,0,0,0
57.6875,11.979619,-2.060924,-0.00168,-0.094073,0,3,3928987,2.7,52,52,52,8.495644,-0.850803,-0.182274,0.090742,0.018565,-0.024505,3,0,0,0,0,0,0
57.6875,11.979619,-2.051349,0.000305,-0.093921,0,3,3928997,2.71,52,52,52,8.52509,-0.856549,-0.182905,0.090915,0.018619,-0.024737,3,0,0,0,0,0,0
57.6875,11.979619,-2.045365,-0.003665,-0.092699,0,3,3929007,2.72,52,52,52,8.554532,-0.862317,-0.183541,0.090623,0.019638,-0.025115,3,0,0,0,0,0,0
57.6875,11.979619,-2.039381,-0.002596,-0.096364,0,3,3929017,2.73,52,52,52,8.58397,-0.868108,-0.184188,0.090328,0.018732,-0.024953,3,0,0,0,0,0,0
57.6875,11.979619,-2.046562,-0.002749,-0.096669,0,3,3929027,2.74,52,52,52,8.613404,-0.873916,-0.18483,0.090128,0.018482,-0.025615,3,0,0,0,0,0,0
57.6875,11.979619,-2.044169,-0.004581,-0.09499,0,3,3929037,2.75,52,52,52,8.642833,-0.879751,-0.18549,0.090369,0.018467,-0.025617,3,0,0,0,0,0,0
57.6875,11.979619,-2.069302,-0.002749,-0.094226,0,3,3929047,2.76,52,52,52,8.672258,-0.885606,-0.186149,0.090288,0.01768,-0.025429,3,0,0,0,0,0,0
57.6875,11.979619,-2.042972,-0.005345,-0.096364,0,3,3929057,2.77,52,52,52,8.70168,-0.891477,-0.186804,0.091172,0.01837,-0.024761,3,0,0,0,0,0,0
57.6875,11.979619,-2.050153,-0.00168,-0.094684,0,3,3929067,2.78,52,52,52,8.731099,-0.89736,-0.187442,0.090382,0.01701,-0.025851,3,0,0,0,0,0,0
57.6875,11.979619,-2.045365,-0.002291,-0.09499,0,3,3929077,2.79,52,52,52,8.760512,-0.903275,-0.188107,0.09052,0.018045,-0.025314,3,0,0,0,0,0,0
57.6875,11.979619,-2.039381,-0.003818,-0.094226,0,3,3929087,2.8,52,52,52,8.789922,-0.909203,-0.188759,0.090361,0.018284,-0.025398,3,0,0,0,0,0,0
57.6875,11.979619,-2.051349,-0.009621,-0.097128,0,3,3929097,2.81,52,52,52,8.819328,-0.915151,-0.189413,0.090102,0.017799,-0.025309,3,0,0,0,0,0,0
57.6875,11.979619,-2.066908,-0.003054,-0.096822,0,3,3929107,2.82,52,52,52,8.848731,-0.921117,-0.190064,0.090512,0.01543,-0.025544,3,0,0,0,0,0,0
57.6875,11.979619,-2.066908,-0.003054,-0.096822,0,3,3929117,2.83,52,52,52,8.878129,-0.927105,-0.190722,0.091172,0.016727,-0.025418,3,0,0,0,0,0,0
57.6875,11.979619,-2.063318,-0.004276,-0.096669,0,3,3929127,2.84,52,52,52,8.907523,-0.933111,-0.191376,0.09053,0.017131,-0.025838,3,0,0,0,0,0,0
57.6875,11.979619,-2.063318,-0.004276,-0.096669,0,3,3929137,2.85,52,52,52,8.936913,-0.939141,-0.192041,0.091039,0.017233,-0.025533,3,0,0,0,0,0,0
57.6875,11.979619,-2.045365,0.000153,-0.091935,0,3,3929147,2.86,52,52,52,8.966299,-0.945188,-0.192699,0.090413,0.018693,-0.025054,3,0,0,0,0,0,0
57.6875,11.979619,-2.057334,-0.004123,-0.095295,0,3,3929157,2.87,52,52,52,8.995683,-0.951247,-0.193344,0.090765,0.018169,-0.02515,3,0,0,0,0,0,0
57.6875,11.979619,-2.041775,-0.000458,-0.095448,0,3,3929167,2.88,52,52,52,9.025062,-0.957327,-0.193991,0.090285,0.018929,-0.025612,3,0,0,0,0,0,0
57.6875,11.979619,-2.052546,-0.00168,-0.092852,0,3,3929177,2.89,52,52,52,9.054436,-0.963431,-0.194651,0.090551,0.019309,-0.024829,3,0,0,0,0,0,0
57.6875,11.979619,-2.05853,0,-0.096059,0,3,3929187,2.9,52,52,52,9.083808,-0.969545,-0.19529,0.090855,0.020105,-0.025285,3,0,0,0,0,0,0
57.6875,11.979619,-2.068105,-0.002902,-0.091172,0,3,3929197,2.91,52,52,52,9.113175,-0.975684,-0.195941,0.091163,0.019676,-0.024391,3,0,0,0,0,0,0
57.6875,11.979619,-2.034594,-0.004429,-0.095142,0,3,3929207,2.92,52,52,52,9.14254,-0.98183,-0.196569,0.090054,0.018036,-0.025676,3,0,0,0,0,0,0
57.6875,11.979619,-2.052546,-0.003971,-0.096059,0,3,3929217,2.93,52,52,52,9.171899,-0.988011,-0.19723,0.090559,0.017858,-0.025375,3,0,0,0,0,0,0
57.6875,11.979619,-2.029807,-0.004887,-0.095295,0,3,3929226,2.939,52,52,52,9.201253,-0.994208,-0.197883,0.089804,0.016882,-0.025759,3,0,0,0,0,0,0
57.6875,11.979619,-2.059727,-0.001985,-0.093768,0,3,3929236,2.949,52,52,52,9.230603,-1.000429,-0.198546,0.090751,0.018184,-0.024713,3,0,0,0,0,0,0
57.6875,11.979619,-2.051349,0.000458,-0.092088,0,3,3929246,2.959,52,52,52,9.259952,-1.006655,-0.199183,0.090568,0.019524,-0.024682,3,0,0,0,0,0,0
57.6875,11.979619,-2.023823,-0.002902,-0.094684,0,3,3929257,2.97,52,52,52,9.289296,-1.012901,-0.199818,0.089573,0.018547,-0.025597,3,0,0,0,0,0,0
57.6875,11.979619,-2.031004,-0.004429,-0.096822,0,3,3929267,2.98,52,52,52,9.318634,-1.019176,-0.200477,0.089714,0.017738,-0.025691,3,0,0,0,0,0,0
57.6875,11.979619,-2.05853,-0.001069,-0.096517,0,3,3929276,2.989,52,52,52,9.347968,-1.025472,-0.201138,0.090739,0.018992,-0.025224,3,0,0,0,0,0,0
57.6875,11.979619,-2.059727,-0.001222,-0.091477,0,3,3929287,3,52,52,52,9.377299,-1.031781,-0.201788,0.090856,0.019539,-0.024531,3,0,0,0,0,0,0
57.6875,11.979619,-2.060924,-0.003971,-0.095906,0,3,3929296,3.009,52,52,52,9.406627,-1.038101,-0.202419,0.090967,0.01864,-0.025273,3,0,0,0,0,0,0
57.6875,11.979619,-2.072892,-0.008552,-0.0956,0,3,3929307,3.02,52,52,52,9.43595,-1.044449,-0.20307,0.091406,0.016519,-0.025214,3,0,0,0,0,0,0
57.6875,11.979619,-2.036988,-0.007941,-0.096517,0,3,3929316,3.029,52,52,52,9.465268,-1.050815,-0.203719,0.09021,0.014729,-0.026175,3,0,0,0,0,0,0
57.687505,11.97962,-2.050153,-0.003818,-0.093921,0,3,3929327,3.04,78,78,78,9.49458,-1.057212,-0.204393,0.090481,0.01591,-0.025159,3,0,0,0,0,0,0
57.687505,11.97962,-2.036988,-0.001222,-0.09728,0,3,3929337,3.05,78,78,78,9.523891,-1.063616,-0.205041,0.090099,0.017214,-0.025932,3,0,0,0,0,0,0
57.687505,11.97962,-2.05494,-0.00336,-0.09331,0,3,3929347,3.06,78,78,78,9.553195,-1.070048,-0.205708,0.0909,0.016879,-0.025162,3,0,0,0,0,0,0
57.687505,11.97962,-2.05494,-0.00336,-0.09331,0,3,3929357,3.07,78,78,78,9.582496,-1.076491,-0.206356,0.090736,0.017252,-0.025016,3,0,0,0,0,0,0
57.687505,11.97962,-2.05853,-0.002749,-0.09331,0,3,3929367,3.08,78,78,78,9.611795,-1.082951,-0.207,0.090211,0.01688,-0.025469,3,0,0,0,0,0,0
57.687505,11.97962,-2.05853,-0.002749,-0.09331,0,3,3929377,3.09,78,78,78,9.641087,-1.089435,-0.207656,0.09076,0.017752,-0.024743,3,0,0,0,0,0,0
57.687505,11.97962,-2.036988,-0.001069,-0.098044,0,3,3929387,3.1,78,78,78,9.670377,-1.095929,-0.208293,0.089974,0.018523,-0.025632,3,0,0,0,0,0,0
57.687505,11.97962,-2.036988,-0.001069,-0.098044,0,3,3929397,3.11,78,78,78,9.699661,-1.102454,-0.208953,0.09003,0.018996,-0.025995,3,0,0,0,0,0,0
57.687505,11.97962,-2.050153,-0.006414,-0.092088,0,3,3929407,3.12,78,78,78,9.72894,-1.109002,-0.209622,0.090397,0.017568,-0.024706,3,0,0,0,0,0,0
57.687505,11.97962,-2.038184,-0.00336,-0.093004,0,3,3929417,3.13,78,78,78,9.758217,-1.115553,-0.210258,0.090037,0.017513,-0.024945,3,0,0,0,0,0,0
57.687505,11.97962,-2.076483,-0.004429,-0.095295,0,3,3929427,3.14,78,78,78,9.78749,-1.122126,-0.2109,0.09054,0.01746,-0.025141,3,0,0,0,0,0,0
57.687505,11.97962,-2.076483,-0.004429,-0.095295,0,3,3929437,3.15,78,78,78,9.816758,-1.128721,-0.211548,0.091477,0.017591,-0.024882,3,0,0,0,0,0,0
57.687505,11.97962,-2.063318,-0.003971,-0.091019,0,3,3929447,3.16,78,78,78,9.846023,-1.135331,-0.212188,0.091086,0.017473,-0.024595,3,0,0,0,0,0,0
57.687505,11.97962,-2.053743,-0.003818,-0.097738,0,3,3929457,3.17,78,78,78,9.875284,-1.141956,-0.212821,0.090784,0.017223,-0.025855,3,0,0,0,0,0,0
57.687505,11.97962,-2.069302,-0.003054,-0.092241,0,3,3929467,3.18,78,78,78,9.904537,-1.148616,-0.213487,0.091228,0.01791,-0.024667,3,0,0,0,0,0,0
57.687505,11.97962,-2.045365,-0.000611,-0.092088,0,3,3929477,3.19,78,78,78,9.933789,-1.15528,-0.214122,0.090427,0.018709,-0.024968,3,0,0,0,0,0,0
57.687505,11.97962,-2.045365,-0.000916,-0.09163,0,3,3929487,3.2,78,78,78,9.963036,-1.161966,-0.214765,0.090138,0.0193,-0.025478,3,0,0,0,0,0,0
57.687505,11.97962,-2.045365,-0.000916,-0.09163,0,3,3929497,3.21,78,78,78,9.992278,-1.168678,-0.215421,0.090249,0.019777,-0.024627,3,0,0,0,0,0,0
57.687505,11.97962,-2.045365,-0.000916,-0.091477,0,3,3929507,3.22,78,78,78,10.021517,-1.175398,-0.216055,0.090376,0.019586,-0.025478,3,0,0,0,0,0,0
57.687505,11.97962,-2.045365,-0.000916,-0.091477,0,3,3929517,3.23,78,78,78,10.05075,-1.182148,-0.216711,0.090285,0.01989,-0.024694,3,0,0,0,0,0,0
57.687505,11.97962,-2.027413,-0.005498,-0.093615,0,3,3929527,3.24,78,78,78,10.07998,-1.188906,-0.217346,0.090749,0.019798,-0.025082,3,0,0,0,0,0,0
57.687505,11.97962,-2.027413,-0.005498,-0.093615,0,3,3929537,3.25,78,78,78,10.109205,-1.195688,-0.217992,0.08971,0.017756,-0.025491,3,0,0,0,0,0,0
57.687505,11.97962,-2.031004,-0.001985,-0.094073,0,3,3929547,3.26,78,78,78,10.138425,-1.202495,-0.218648,0.090199,0.017746,-0.02428,3,0,0,0,0,0,0
57.687505,11.97962,-2.031004,-0.001985,-0.094073,0,3,3929557,3.27,78,78,78,10.167643,-1.209305,-0.219274,0.089762,0.018045,-0.025104,3,0,0,0,0,0,0
57.687505,11.97962,-2.060924,-0.003971,-0.094226,0,3,3929567,3.28,78,78,78,10.196855,-1.216144,-0.21992,0.090694,0.018778,-0.024664,3,0,0,0,0,0,0
57.687505,11.97962,-2.031004,-0.002443,-0.091783,0,3,3929577,3.29,78,78,78,10.226064,-1.222996,-0.220555,0.090917,0.018272,-0.024904,3,0,0,0,0,0,0
57.687505,11.97962,-2.031004,-0.002443,-0.091783,0,3,3929587,3.3,78,78,78,10.255267,-1.229869,-0.221196,0.08985,0.018077,-0.025089,3,0,0,0,0,0,0
57.687505,11.97962,-2.083664,-0.006567,-0.093157,0,3,3929597,3.31,78,78,78,10.284466,-1.236764,-0.221842,0.091575,0.017489,-0.02405,3,0,0,0,0,0,0
57.687505,11.97962,-2.034594,-0.002749,-0.091935,0,3,3929607,3.32,78,78,78,10.313663,-1.243665,-0.222461,0.090076,0.017321,-0.025127,3,0,0,0,0,0,0
57.687505,11.97962,-2.034594,-0.003054,-0.096975,0,3,3929617,3.33,78,78,78,10.342853,-1.250597,-0.223108,0.089929,0.017429,-0.02575,3,0,0,0,0,0,0
57.687505,11.97962,-2.051349,-0.003512,-0.090255,0,3,3929627,3.34,78,78,78,10.372037,-1.257556,-0.223771,0.090405,0.017834,-0.024222,3,0,0,0,0,0,0
57.687505,11.97962,-2.052546,-0.004734,-0.096669,0,3,3929637,3.35,78,78,78,10.40122,-1.264515,-0.224394,0.0906,0.017259,-0.025309,3,0,0,0,0,0,0
57.687505,11.97962,-2.052546,-0.006261,-0.094837,0,3,3929648,3.361,78,78,78,10.430396,-1.271506,-0.225046,0.090145,0.017676,-0.02482,3,0,0,0,0,0,0
57.687505,11.97962,-2.052546,-0.006261,-0.094837,0,3,3929657,3.37,78,78,78,10.459569,-1.278509,-0.225685,0.090531,0.016712,-0.024979,3,0,0,0,0,0,0
57.687505,11.97962,-2.064515,-0.000764,-0.092546,0,3,3929667,3.38,78,78,78,10.488737,-1.285534,-0.226328,0.091015,0.018435,-0.024507,3,0,0,0,0,0,0
57.687505,11.97962,-2.070499,-0.002138,-0.090713,0,3,3929677,3.39,78,78,78,10.517901,-1.292571,-0.226959,0.091262,0.018934,-0.024141,3,0,0,0,0,0,0
57.687505,11.97962,-2.050153,-0.002902,-0.096822,0,3,3929687,3.4,78,78,78,10.547062,-1.299622,-0.227581,0.090661,0.018361,-0.025714,3,0,0,0,0,0,0
57.687505,11.97962,-2.051349,-0.002443,-0.095295,0,3,3929697,3.41,78,78,78,10.576215,-1.306711,-0.228243,0.09061,0.018488,-0.025502,3,0,0,0,0,0,0
57.687505,11.97962,-2.051349,-0.002443,-0.09163,0,3,3929707,3.42,78,78,78,10.605363,-1.313816,-0.228899,0.090538,0.018661,-0.024715,3,0,0,0,0,0,0
57.687505,11.97962,-2.038184,-0.002291,-0.093921,0,3,3929717,3.43,78,78,78,10.634509,-1.320931,-0.229535,0.090077,0.018532,-0.025188,3,0,0,0,0,0,0
57.687505,11.97962,-2.048956,-0.004123,-0.092393,0,3,3929727,3.44,78,78,78,10.663649,-1.32807,-0.230184,0.090364,0.018103,-0.024621,3,0,0,0,0,0,0
57.687505,11.97962,-2.057334,-0.006872,-0.090561,0,3,3929737,3.45,78,78,78,10.692786,-1.335221,-0.230818,0.090662,0.016851,-0.024103,3,0,0,0,0,0,0
57.687505,11.97962,-2.039381,-0.002749,-0.093921,0,3,3929747,3.46,78,78,78,10.72192,-1.342384,-0.231438,0.090133,0.017214,-0.025072,3,0,0,0,0,0,0
57.687505,11.97962,-2.015445,-0.001222,-0.094531,0,3,3929757,3.47,78,78,78,10.751046,-1.349578,-0.232084,0.089217,0.017806,-0.025614,3,0,0,0,0,0,0
57.687505,11.97962,-2.0322,-0.001527,-0.094226,0,3,3929767,3.48,78,78,78,10.780167,-1.356796,-0.232743,0.08967,0.018605,-0.025016,3,0,0,0,0,0,0
57.687505,11.97962,-2.068105,-0.005192,-0.093004,0,3,3929777,3.49,78,78,78,10.809284,-1.364027,-0.233387,0.090987,0.018135,-0.024204,3,0,0,0,0,0,0
57.687505,11.97962,-2.0322,-0.002138,-0.094531,0,3,3929787,3.5,78,78,78,10.838399,-1.371266,-0.23401,0.089939,0.018012,-0.025477,3,0,0,0,0,0,0
57.687505,11.97962,-2.034594,-0.001833,-0.096059,0,3,3929797,3.51,78,78,78,10.867506,-1.378539,-0.234666,0.089901,0.018401,-0.025596,3,0,0,0,0,0,0
57.687505,11.97962,-2.071695,-0.004581,-0.094837,0,3,3929807,3.52,78,78,78,10.896608,-1.385833,-0.235325,0.091197,0.018228,-0.024724,3,0,0,0,0,0,0
57.687505,11.97962,-2.033397,-0.002902,-0.09499,0,3,3929817,3.53,78,78,78,10.925707,-1.393135,-0.235962,0.09003,0.017746,-0.025749,3,0,0,0,0,0,0
57.687505,11.97962,-2.047759,-0.002902,-0.089492,0,3,3929827,3.54,78,78,78,10.954799,-1.400468,-0.236625,0.090282,0.018196,-0.024177,3,0,0,0,0,0,0
57.687505,11.97962,-2.056137,-0.002902,-0.093768,0,3,3929837,3.55,78,78,78,10.983891,-1.407801,-0.237247,0.090667,0.018359,-0.024618,3,0,0,0,0,0,0
57.687505,11.97962,-2.029807,-0.003665,-0.09728,0,3,3929847,3.56,78,78,78,11.012976,-1.415158,-0.237881,0.089845,0.017548,-0.026023,3,0,0,0,0,0,0
57.687505,11.97962,-2.069302,-0.002749,-0.094531,0,3,3929857,3.57,78,78,78,11.042053,-1.42255,-0.238551,0.091114,0.01843,-0.024775,3,0,0,0,0,0,0
57.687505,11.97962,-2.064515,-0.002291,-0.095295,0,3,3929867,3.58,78,78,78,11.071129,-1.429947,-0.239189,0.091142,0.018641,-0.025244,3,0,0,0,0,0,0
57.687505,11.97962,-2.051349,-0.003665,-0.092852,0,3,3929877,3.59,78,78,78,11.100198,-1.437368,-0.239839,0.090408,0.017715,-0.026158,3,0,0,0,0,0,0
57.687505,11.97962,-2.059727,-0.003818,-0.09499,0,3,3929887,3.6,78,78,78,11.12926,-1.444819,-0.240512,0.090532,0.01777,-0.025018,3,0,0,0,0,0,0
57.687505,11.97962,-2.059727,-0.003818,-0.09499,0,3,3929897,3.61,78,78,78,11.15832,-1.452275,-0.241156,0.090869,0.017743,-0.025085,3,0,0,0,0,0,0
57.687505,11.97962,-2.059727,-0.003665,-0.092393,0,3,3929907,3.62,78,78,78,11.187376,-1.459751,-0.241802,0.090883,0.017764,-0.024727,3,0,0,0,0,0,0
57.687505,11.97962,-2.070499,-0.00168,-0.096364,0,3,3929917,3.63,78,78,78,11.216427,-1.467242,-0.242439,0.09134,0.01861,-0.025242,3,0,0,0,0,0,0
57.687505,11.97962,-2.064515,-0.000305,-0.093615,0,3,3929927,3.64,78,78,78,11.245472,-1.474757,-0.243088,0.089953,0.018415,-0.026167,3,0,0,0,0,0,0
57.687505,11.97962,-2.064515,-0.000305,-0.093615,0,3,3929937,3.65,78,78,78,11.27451,-1.482303,-0.243762,0.090955,0.019831,-0.024757,3,0,0,0,0,0,0
57.687505,11.97962,-2.063318,-0.001985,-0.093921,0,3,3929947,3.66,78,78,78,11.303547,-1.48985,-0.244399,0.090866,0.018476,-0.024519,3,0,0,0,0,0,0
57.687505,11.97962,-2.063318,-0.001985,-0.093921,0,3,3929956,3.669,78,78,78,11.332579,-1.497414,-0.245031,0.091033,0.018859,-0.024838,3,0,0,0,0,0,0
57.687505,11.97962,-2.052546,-0.00672,-0.093157,0,3,3929967,3.68,78,78,78,11.361606,-1.504999,-0.24567,0.090645,0.017052,-0.025019,3,0,0,0,0,0,0
57.687505,11.97962,-2.027413,-0.00168,-0.092546,0,3,3929977,3.69,78,78,78,11.390628,-1.512606,-0.246314,0.089697,0.017636,-0.025211,3,0,0,0,0,0,0
57.687505,11.97962,-2.065711,-0.002902,-0.092699,0,3,3929987,3.7,78,78,78,11.419644,-1.520233,-0.246963,0.090916,0.018413,-0.024235,3,0,0,0,0,0,0
57.687505,11.97962,-2.07768,-0.00504,-0.092088,0,3,3929997,3.71,78,78,78,11.448658,-1.527867,-0.247587,0.09151,0.017887,-0.024185,3,0,0,0,0,0,0
57.687505,11.97962,-2.047759,-0.005803,-0.093768,0,3,3930007,3.72,78,78,78,11.477667,-1.535519,-0.24821,0.090557,0.016566,-0.025263,3,0,0,0,0,0,0
57.687505,11.97962,-2.033397,-0.000305,-0.090561,0,3,3930017,3.73,78,78,78,11.506669,-1.543202,-0.24886,0.089876,0.018064,-0.024734,3,0,0,0,0,0,0
57.687505,11.97962,-2.052546,-0.003054,-0.08995,0,3,3930027,3.74,78,78,78,11.535666,-1.550897,-0.249497,0.090417,0.018392,-0.023893,3,0,0,0,0,0,0
57.687505,11.97962,-2.036988,-0.004276,-0.092241,0,3,3930037,3.75,78,78,78,11.564662,-1.558601,-0.250112,0.089965,0.017611,-0.024645,3,0,0,0,0,0,0
57.687505,11.97962,-2.063318,-0.002902,-0.095142,0,3,3930047,3.76,78,78,78,11.593651,-1.566331,-0.250747,0.090905,0.018197,-0.024737,3,0,0,0,0,0,0
57.687505,11.97962,-2.053743,-0.002138,-0.093462,0,3,3930057,3.77,78,78,78,11.622634,-1.574081,-0.251384,0.090691,0.018482,-0.024978,3,0,0,0,0,0,0
57.687505,11.97962,-2.059727,-0.002443,-0.094073,0,3,3930067,3.78,78,78,78,11.651612,-1.581853,-0.252027,0.090883,0.018689,-0.024963,3,0,0,0,0,0,0
57.687505,11.97962,-2.029807,-0.004429,-0.092546,0,3,3930077,3.79,78,78,78,11.680585,-1.589643,-0.252669,0.089805,0.017527,-0.025262,3,0,0,0,0,0,0
57.687505,11.97962,-2.052546,-0.003054,-0.094073,0,3,3930087,3.8,78,78,78,11.709551,-1.597455,-0.25332,0.090484,0.018006,-0.024789,3,0,0,0,0,0,0
57.687505,11.97962,-2.060924,-0.001222,-0.097586,0,3,3930097,3.81,78,78,78,11.738514,-1.60528,-0.253958,0.090953,0.018856,-0.025501,3,0,0,0,0,0,0
57.687505,11.97962,-2.039381,-0.002443,-0.097128,0,3,3930107,3.82,78,78,78,11.76747,-1.613133,-0.254614,0.090253,0.018453,-0.026142,3,0,0,0,0,0,0
57.687505,11.97962,-2.053743,-0.005651,-0.092546,0,3,3930117,3.83,78,78,78,11.796419,-1.621012,-0.255287,0.090577,0.017531,-0.024854,3,0,0,0,0,0,0
57.687505,11.97962,-2.050153,-0.001833,-0.097586,0,3,3930127,3.84,78,78,78,11.825367,-1.628895,-0.255927,0.090581,0.018128,-0.02574,3,0,0,0,0,0,0
57.687505,11.97962,-2.025019,-0.001833,-0.09331,0,3,3930137,3.85,78,78,78,11.854306,-1.636808,-0.25659,0.089621,0.01822,-0.025544,3,0,0,0,0,0,0
57.687505,11.97962,-2.050153,-0.001374,-0.095142,0,3,3930147,3.86,78,78,78,11.883241,-1.644737,-0.257248,0.090395,0.019078,-0.025032,3,0,0,0,0,0,0
57.687505,11.97962,-2.023823,-0.003971,-0.089339,0,3,3930157,3.87,78,78,78,11.912173,-1.652679,-0.257892,0.089459,0.018059,-0.024557,3,0,0,0,0,0,0
57.687505,11.97962,-2.063318,0.002291,-0.094684,0,3,3930167,3.88,78,78,78,11.9411,-1.660634,-0.258524,0.089808,0.017413,-0.024316,3,0,0,0,0,0,0
57.687505,11.97962,-2.051349,-0.00168,-0.096059,0,3,3930177,3.89,78,78,78,11.970024,-1.668604,-0.25915,0.090888,0.020144,-0.024506,3,0,0,0,0,0,0
57.687505,11.97962,-2.060924,-0.000611,-0.094837,0,3,3930187,3.9,78,78,78,11.998942,-1.676594,-0.259781,0.090638,0.019728,-0.025479,3,0,0,0,0,0,0
57.687505,11.97962,-2.060924,-0.000611,-0.094837,0,3,3930197,3.91,78,78,78,12.027852,-1.684615,-0.260437,0.090943,0.020198,-0.025188,3,0,0,0,0,0,0
57.687505,11.97962,-2.034594,-0.001527,-0.094684,0,3,3930207,3.92,78,78,78,12.056757,-1.692651,-0.261086,0.09013,0.018458,-0.024847,3,0,0,0,0,0,0
57.687505,11.97962,-2.034594,-0.001527,-0.094684,0,3,3930217,3.93,78,78,78,12.085658,-1.700702,-0.261725,0.089899,0.018744,-0.025264,3,0,0,0,0,0,0
57.687505,11.97962,-2.065711,-0.003665,-0.093462,0,3,3930227,3.94,78,78,78,12.114553,-1.708776,-0.262376,0.090212,0.018518,-0.024659,3,0,0,0,0,0,0
57.687505,11.97962,-2.065711,-0.003665,-0.093462,0,3,3930237,3.95,78,78,78,12.143445,-1.716862,-0.263011,0.090999,0.018464,-0.024474,3,0,0,0,0,0,0
57.687505,11.97962,-2.068105,-0.002749,-0.093921,0,3,3930247,3.96,78,78,78,12.172332,-1.724964,-0.263641,0.090469,0.017538,-0.025504,3,0,0,0,0,0,0
57.687505,11.97962,-2.068105,-0.002749,-0.093921,0,3,3930257,3.97,78,78,78,12.20121,-1.733096,-0.264297,0.091155,0.018226,-0.024811,3,0,0,0,0,0,0
57.687505,11.97962,-2.036988,-0.002443,-0.093615,0,3,3930267,3.98,78,78,78,12.230086,-1.741239,-0.264936,0.090973,0.017493,-0.024883,3,0,0,0,0,0,0
57.687505,11.97962,-2.042972,-0.002443,-0.0956,0,3,3930277,3.99,78,78,78,12.258956,-1.749401,-0.265577,0.090106,0.017642,-0.025358,3,0,0,0,0,0,0
57.687505,11.97962,-2.060924,-0.004276,-0.093157,0,3,3930287,4,78,78,78,12.287819,-1.757588,-0.266229,0.090218,0.018039,-0.025399,3,0,0,0,0,0,0
57.687505,11.97962,-2.060924,-0.004276,-0.093157,0,3,3930297,4.01,78,78,78,12.316677,-1.765794,-0.266883,0.090834,0.017896,-0.024665,3,0,0,0,0,0,0
57.687505,11.97962,-2.069302,-0.001069,-0.092088,0,3,3930307,4.02,78,78,78,12.345531,-1.77401,-0.267518,0.091024,0.017565,-0.024886,3,0,0,0,0,0,0
57.687505,11.97962,-2.0322,-0.001374,-0.100182,0,3,3930317,4.03,78,78,78,12.37438,-1.782247,-0.268159,0.091256,0.018786,-0.024516,3,0,0,0,0,0,0
57.68751,11.979619,-2.047759,-0.002902,-0.094531,0,3,3930327,4.04,102,102,102,4.360531,-2.813441,-12.162262,0.090083,0.018502,-0.026766,1.3654,0,0,0,0,0,0
57.68751,11.979619,-2.042972,-0.003512,-0.094684,0,3,3930337,4.05,102,102,102,4.373219,-2.808387,-12.162951,0.090389,0.01856,-0.025419,1.37999,0,0,0,0,0,0
57.68751,11.979619,-2.065711,-0.001374,-0.091324,0,3,3930347,4.06,102,102,102,4.386039,-2.803268,-12.163606,0.090244,0.018127,-0.025353,1.394451,0,0,0,0,0,0
57.68751,11.979619,-2.044169,-0.004581,-0.093462,0,3,3930357,4.07,102,102,102,4.398995,-2.798101,-12.164258,0.090991,0.019199,-0.024221,1.408782,0,0,0,0,0,0
57.68751,11.979619,-2.035791,-0.004734,-0.092393,0,3,3930367,4.08,102,102,102,4.41208,-2.792872,-12.164882,0.09034,0.017928,-0.02507,1.422986,0,0,0,0,0,0
57.68751,11.979619,-2.039381,-0.004429,-0.091019,0,3,3930377,4.09,102,102,102,4.425303,-2.787606,-12.165527,0.089931,0.017203,-0.024928,1.437063,0,0,0,0,0,0
57.68751,11.979619,-2.071695,-0.00336,-0.094531,0,3,3930387,4.1,102,102,102,4.438659,-2.782292,-12.166169,0.089971,0.017082,-0.024395,1.451014,0,0,0,0,0,0
57.68751,11.979619,-2.052546,-0.007025,-0.092546,0,3,3930397,4.11,102,102,102,4.452144,-2.776926,-12.166797,0.091192,0.017839,-0.024415,1.46484,0,0,0,0,0,0
57.68751,11.979619,-2.05494,-0.003054,-0.094837,0,3,3930407,4.12,102,102,102,4.46576,-2.771515,-12.167426,0.090655,0.016267,-0.024864,1.478543,0,0,0,0,0,0
57.68751,11.979619,-2.05494,-0.003054,-0.094837,0,3,3930417,4.13,102,102,102,4.479508,-2.766064,-12.168066,0.090719,0.017015,-0.025146,1.492124,0,0,0,0,0,0
57.68751,11.979619,-2.050153,-0.000916,-0.092546,0,3,3930427,4.14,102,102,102,4.493386,-2.760573,-12.168713,0.090892,0.016592,-0.025127,1.505584,0,0,0,0,0,0
57.68751,11.979619,-2.050153,-0.000916,-0.092546,0,3,3930437,4.15,102,102,102,4.507391,-2.755039,-12.16936,0.090561,0.017973,-0.024936,1.518923,0,0,0,0,0,0
57.68751,11.979619,-2.08127,-0.000916,-0.092088,0,3,3930447,4.16,102,102,102,4.521522,-2.74946,-12.170002,0.090458,0.018478,-0.025376,1.532144,0,0,0,0,0,0
57.68751,11.979619,-2.08127,-0.000916,-0.092088,0,3,3930457,4.17,102,102,102,4.535781,-2.743844,-12.170655,0.0916,0.019774,-0.024193,1.545246,0,0,0,0,0,0
57.68751,11.979619,-2.038184,-0.004123,-0.096211,0,3,3930467,4.18,102,102,102,4.550158,-2.738172,-12.171278,0.090319,0.019004,-0.025374,1.558232,0,0,0,0,0,0
57.68751,11.979619,-2.038184,-0.004123,-0.096211,0,3,3930477,4.19,102,102,102,4.564665,-2.732474,-12.171931,0.090081,0.018056,-0.0257,1.571101,0,0,0,0,0,0
57.68751,11.979619,-2.036988,-0.006414,-0.096822,0,3,3930487,4.2,102,102,102,4.579296,-2.72674,-12.172593,0.089683,0.017836,-0.026039,1.583856,0,0,0,0,0,0
57.68751,11.979619,-2.036988,-0.006414,-0.096822,0,3,3930497,4.21,102,102,102,4.59405,-2.72097,-12.173263,0.089948,0.016622,-0.025728,1.596497,0,0,0,0,0,0
57.68751,11.979619,-2.050153,-0.00168,-0.093462,0,3,3930507,4.22,102,102,102,4.608923,-2.715158,-12.173926,0.090427,0.017953,-0.02487,1.609024,0,0,0,0,0,0
57.68751,11.979619,-2.025019,-0.002596,-0.096059,0,3,3930517,4.23,102,102,102,4.623912,-2.709298,-12.174566,0.089624,0.017747,-0.025824,1.621441,0,0,0,0,0,0
57.68751,11.979619,-2.029807,-0.004276,-0.092241,0,3,3930527,4.24,102,102,102,4.639023,-2.703412,-12.175231,0.091352,0.017806,-0.024346,1.633746,0,0,0,0,0,0
57.68751,11.979619,-2.042972,-0.000764,-0.091172,0,3,3930537,4.25,102,102,102,4.654246,-2.697471,-12.175858,0.08987,0.016904,-0.025249,1.645941,0,0,0,0,0,0
57.68751,11.979619,-2.026216,-0.004734,-0.086743,0,3,3930547,4.26,102,102,102,4.669589,-2.691504,-12.176508,0.090114,0.018419,-0.024407,1.658028,0,0,0,0,0,0
57.68751,11.979619,-2.044169,-0.000916,-0.091324,0,3,3930557,4.27,102,102,102,4.685043,-2.685491,-12.177136,0.089444,0.017514,-0.023749,1.670007,0,0,0,0,0,0
57.68751,11.979619,-2.038184,-0.001527,-0.0956,0,3,3930567,4.28,102,102,102,4.70061,-2.679434,-12.177747,0.090061,0.018791,-0.023908,1.681878,0,0,0,0,0,0
57.68751,11.979619,-2.051349,0,-0.094226,0,3,3930577,4.29,102,102,102,4.71629,-2.673344,-12.178363,0.090015,0.018958,-0.025143,1.693644,0,0,0,0,0,0
57.68751,11.979619,-2.044169,-0.002902,-0.092699,0,3,3930587,4.3,102,102,102,4.732089,-2.667234,-12.17901,0.090485,0.019979,-0.024903,1.705305,0,0,0,0,0,0
57.68751,11.979619,-2.048956,-0.005498,-0.09331,0,3,3930597,4.31,102,102,102,4.747999,-2.661087,-12.179651,0.09026,0.019245,-0.024872,1.716862,0,0,0,0,0,0
57.68751,11.979619,-2.051349,0.000153,-0.095295,0,3,3930607,4.32,102,102,102,4.764019,-2.654906,-12.180292,0.090396,0.01791,-0.024808,1.728315,0,0,0,0,0,0
57.68751,11.979619,-2.056137,-0.000764,-0.089492,0,3,3930617,4.33,102,102,102,4.78015,-2.648691,-12.18093,0.090563,0.019258,-0.025187,1.739667,0,0,0,0,0,0
57.68751,11.979619,-2.040578,0.000611,-0.097128,0,3,3930627,4.34,102,102,102,4.796391,-2.642449,-12.181579,0.090666,0.019916,-0.024126,1.750917,0,0,0,0,0,0
57.68751,11.979619,-2.042972,0.000153,-0.090255,0,3,3930637,4.35,102,102,102,4.812736,-2.636163,-12.1822,0.090236,0.020321,-0.025699,1.762066,0,0,0,0,0,0
57.68751,11.979619,-2.05853,-0.003818,-0.08995,0,3,3930647,4.36,102,102,102,4.829195,-2.629863,-12.182862,0.090162,0.020792,-0.024492,1.773116,0,0,0,0,0,0
57.68751,11.979619,-2.05853,-0.003818,-0.08995,0,3,3930657,4.37,102,102,102,4.845755,-2.623519,-12.183492,0.090665,0.019757,-0.023863,1.784068,0,0,0,0,0,0
57.68751,11.979619,-2.071695,-0.006414,-0.096517,0,3,3930667,4.38,102,102,102,4.862418,-2.617136,-12.184106,0.090526,0.019383,-0.024494,1.794921,0,0,0,0,0,0
57.68751,11.979619,-2.027413,-0.001222,-0.094226,0,3,3930677,4.39,102,102,102,4.879189,-2.610731,-12.184737,0.091299,0.017843,-0.025063,1.805678,0,0,0,0,0,0
57.68751,11.979619,-2.072892,-0.00168,-0.096822,0,3,3930687,4.4,102,102,102,4.896066,-2.604304,-12.185382,0.089833,0.018076,-0.025819,1.816339,0,0,0,0,0,0
57.68751,11.979619,-2.072892,-0.00168,-0.096822,0,3,3930697,4.41,102,102,102,4.913049,-2.597856,-12.186047,0.091278,0.019163,-0.025112,1.826904,0,0,0,0,0,0
57.68751,11.979619,-2.039381,-0.003512,-0.090713,0,3,3930707,4.42,102,102,102,4.930132,-2.591372,-12.186694,0.090341,0.018216,-0.025668,1.837376,0,0,0,0,0,0
57.68751,11.979619,-2.039381,-0.003512,-0.090713,0,3,3930717,4.43,102,102,102,4.947319,-2.584867,-12.187354,0.090047,0.017984,-0.024672,1.847754,0,0,0,0,0,0
57.68751,11.979619,-2.064515,-0.001527,-0.095906,0,3,3930727,4.44,102,102,102,4.964602,-2.578323,-12.18799,0.090025,0.017785,-0.025366,1.858039,0,0,0,0,0,0
57.68751,11.979619,-2.064515,-0.001527,-0.095906,0,3,3930737,4.45,102,102,102,4.981988,-2.571761,-12.188643,0.090988,0.018857,-0.025053,1.868232,0,0,0,0,0,0
57.68751,11.979619,-2.044169,-0.001374,-0.092546,0,3,3930747,4.46,102,102,102,4.999471,-2.565168,-12.189288,0.09082,0.018719,-0.024844,1.878334,0,0,0,0,0,0
57.68751,11.979619,-2.044169,-0.001374,-0.092546,0,3,3930757,4.47,102,102,102,5.017052,-2.558547,-12.189927,0.090322,0.018988,-0.024958,1.888347,0,0,0,0,0,0
57.68751,11.979619,-2.057334,-0.002291,-0.090866,0,3,3930767,4.48,102,102,102,5.03473,-2.551902,-12.19057,0.090643,0.019422,-0.025304,1.89827,0,0,0,0,0,0
57.68751,11.979619,-2.057334,-0.002291,-0.090866,0,3,3930777,4.49,102,102,102,5.052507,-2.545236,-12.191221,0.09074,0.019387,-0.024434,1.908104,0,0,0,0,0,0
57.68751,11.979619,-2.042972,-0.001374,-0.093004,0,3,3930787,4.5,102,102,102,5.070375,-2.538535,-12.19185,0.089847,0.01872,-0.025366,1.91785,0,0,0,0,0,0
57.68751,11.979619,-2.042972,-0.001374,-0.093004,0,3,3930797,4.51,102,102,102,5.088343,-2.53182,-12.192503,0.090135,0.019246,-0.024792,1.92751,0,0,0,0,0,0
57.68751,11.979619,-2.05494,-0.005345,-0.096364,0,3,3930807,4.52,102,102,102,5.106402,-2.525076,-12.193142,0.089887,0.018323,-0.025258,1.937083,0,0,0,0,0,0
57.68751,11.979619,-2.05494,-0.005345,-0.096364,0,3,3930817,4.53,102,102,102,5.124557,-2.518313,-12.193792,0.090609,0.017553,-0.025234,1.946571,0,0,0,0,0,0
57.68751,11.979619,-2.066908,0.000916,-0.094837,0,3,3930827,4.54,102,102,102,5.142805,-2.511528,-12.194441,0.090645,0.018606,-0.025347,1.955974,0,0,0,0,0,0
57.68751,11.979619,-2.066908,0.000916,-0.094837,0,3,3930837,4.55,102,102,102,5.161145,-2.504721,-12.195094,0.091166,0.020206,-0.025051,1.965293,0,0,0,0,0,0
57.68751,11.979619,-2.060924,0.000611,-0.095906,0,3,3930847,4.56,102,102,102,5.179575,-2.497889,-12.195739,0.090416,0.018378,-0.025252,1.974529,0,0,0,0,0,0
57.68751,11.979619,-2.060924,0.000611,-0.095906,0,3,3930857,4.57,102,102,102,5.198096,-2.491038,-12.196389,0.090929,0.01988,-0.02525,1.983683,0,0,0,0,0,0
57.68751,11.979619,-2.033397,0.00168,-0.091783,0,3,3930867,4.58,102,102,102,5.216707,-2.484166,-12.197039,0.09012,0.01878,-0.025733,1.992755,0,0,0,0,0,0
57.68751,11.979619,-2.033397,0.00168,-0.091783,0,3,3930877,4.59,102,102,102,5.23541,-2.477279,-12.197702,0.089835,0.020289,-0.024912,2.001745,0,0,0,0,0,0
57.68751,11.979619,-2.038184,-0.001374,-0.096822,0,3,3930887,4.6,102,102,102,5.254197,-2.470363,-12.198343,0.090907,0.019973,-0.024526,2.010656,0,0,0,0,0,0
57.68751,11.979619,-2.038184,-0.001374,-0.096822,0,3,3930897,4.61,102,102,102,5.27307,-2.463421,-12.198974,0.090183,0.019502,-0.025869,2.019487,0,0,0,0,0,0
57.68751,11.979619,-2.048956,-0.000458,-0.098349,0,3,3930907,4.62,102,102,102,5.292036,-2.456476,-12.19964,0.090503,0.019973,-0.025988,2.028239,0,0,0,0,0,0
57.68751,11.979619,-2.051349,-0.000916,-0.090866,0,3,3930917,4.63,102,102,102,5.311089,-2.449513,-12.200309,0.090518,0.020228,-0.024638,2.036913,0,0,0,0,0,0
57.68751,11.979619,-2.05494,-0.006261,-0.101709,0,3,3930927,4.64,102,102,102,5.330221,-2.442517,-12.200944,0.090855,0.020247,-0.024884,2.04551,0,0,0,0,0,0
57.68751,11.979619,-2.05494,-0.006261,-0.101709,0,3,3930937,4.65,102,102,102,5.349439,-2.435504,-12.201584,0.090841,0.017945,-0.026598,2.05403,0,0,0,0,0,0
57.68751,11.979619,-2.036988,-0.002291,-0.090713,0,3,3930947,4.66,102,102,102,5.368749,-2.428494,-12.202269,0.091026,0.019247,-0.024754,2.062474,0,0,0,0,0,0
57.68751,11.979619,-2.036988,-0.002291,-0.090713,0,3,3930957,4.67,102,102,102,5.388135,-2.421445,-12.202906,0.090061,0.018817,-0.02479,2.070843,0,0,0,0,0,0
57.68751,11.979619,-2.050153,-0.002596,-0.098349,0,3,3930967,4.68,102,102,102,5.407603,-2.414379,-12.203545,0.090425,0.020022,-0.024093,2.079136,0,0,0,0,0,0
57.68751,11.979619,-2.050153,-0.002596,-0.098349,0,3,3930977,4.69,102,102,102,5.42715,-2.407287,-12.204165,0.090546,0.019325,-0.025668,2.087356,0,0,0,0,0,0
57.68751,11.979619,-2.029807,-0.001222,-0.093768,0,3,3930987,4.7,102,102,102,5.446785,-2.400198,-12.204826,0.090424,0.017969,-0.024714,2.095503,0,0,0,0,0,0
57.68751,11.979619,-2.068105,-0.004887,-0.095142,0,3,3930997,4.71,102,102,102,5.466497,-2.393081,-12.205462,0.089761,0.018425,-0.025254,2.103576,0,0,0,0,0,0
57.68751,11.979619,-2.044169,-0.002749,-0.092393,0,3,3931007,4.72,102,102,102,5.486292,-2.385955,-12.206112,0.091043,0.018078,-0.024713,2.111578,0,0,0,0,0,0
57.68751,11.979619,-2.021429,-0.00168,-0.093462,0,3,3931017,4.73,102,102,102,5.506164,-2.378807,-12.206748,0.09035,0.018001,-0.024986,2.119508,0,0,0,0,0,0
57.68751,11.979619,-2.02861,-0.002138,-0.091935,0,3,3931027,4.74,102,102,102,5.526115,-2.371647,-12.207392,0.089445,0.018167,-0.025372,2.127368,0,0,0,0,0,0
57.68751,11.979619,-2.029807,-0.003054,-0.091324,0,3,3931037,4.75,102,102,102,5.546147,-2.364476,-12.208045,0.089533,0.01851,-0.024669,2.135157,0,0,0,0,0,0
57.68751,11.979619,-2.045365,-0.003665,-0.095448,0,3,3931047,4.76,102,102,102,5.566253,-2.357283,-12.20868,0.089564,0.018339,-0.024408,2.142877,0,0,0,0,0,0
57.68751,11.979619,-2.045365,-0.003665,-0.095448,0,3,3931057,4.77,102,102,102,5.586434,-2.350073,-12.209308,0.090189,0.018131,-0.024898,2.150528,0,0,0,0,0,0
57.68751,11.979619,-2.08127,-0.002443,-0.098044,0,3,3931067,4.78,102,102,102,5.606695,-2.342855,-12.209949,0.088812,0.017014,-0.026201,2.15811,0,0,0,0,0,0
57.68751,11.979619,-2.08127,-0.002443,-0.098044,0,3,3931077,4.79,102,102,102,5.627036,-2.335638,-12.210624,0.091437,0.018625,-0.024874,2.165625,0,0,0,0,0,0
57.68751,11.979619,-2.016642,0.00168,-0.093157,0,3,3931087,4.8,102,102,102,5.647447,-2.328394,-12.211264,0.089458,0.019484,-0.025813,2.173073,0,0,0,0,0,0
57.68751,11.979619,-2.035791,-0.006567,-0.095906,0,3,3931097,4.81,102,102,102,5.667937,-2.321147,-12.211929,0.089844,0.017614,-0.025435,2.180454,0,0,0,0,0,0
57.68751,11.979619,-2.052546,-0.003971,-0.094531,0,3,3931107,4.82,102,102,102,5.688499,-2.313885,-12.212584,0.090497,0.017687,-0.024935,2.18777,0,0,0,0,0,0
57.68751,11.979619,-2.051349,-0.00168,-0.094379,0,3,3931117,4.83,102,102,102,5.709132,-2.306604,-12.213226,0.090559,0.018409,-0.025077,2.19502,0,0,0,0,0,0
57.68751,11.979619,-2.065711,-0.002138,-0.091783,0,3,3931127,4.84,102,102,102,5.729838,-2.299313,-12.213871,0.091,0.018976,-0.024929,2.202205,0,0,0,0,0,0
57.68751,11.979619,-2.065711,-0.002138,-0.091783,0,3,3931137,4.85,102,102,102,5.750616,-2.292009,-12.214513,0.091111,0.019179,-0.024526,2.209326,0,0,0,0,0,0
57.68751,11.979619,-2.038184,0.000305,-0.096211,0,3,3931147,4.86,102,102,102,5.771464,-2.284689,-12.215144,0.090751,0.01917,-0.024848,2.216384,0,0,0,0,0,0
57.68751,11.979619,-2.038184,0.000305,-0.096211,0,3,3931157,4.87,102,102,102,5.792384,-2.277362,-12.215784,0.090161,0.019744,-0.025755,2.223379,0,0,0,0,0,0
57.68751,11.979619,-2.068105,-0.001374,-0.093615,0,3,3931167,4.88,102,102,102,5.813378,-2.270035,-12.216447,0.089912,0.018923,-0.024988,2.230311,0,0,0,0,0,0
57.68751,11.979619,-2.039381,-0.004429,-0.096822,0,3,3931177,4.89,102,102,102,5.834439,-2.262689,-12.217091,0.091052,0.019737,-0.024415,2.237182,0,0,0,0,0,0
57.68751,11.979619,-2.040578,-0.00168,-0.098197,0,3,3931187,4.9,102,102,102,5.855567,-2.255326,-12.217719,0.090235,0.018141,-0.025882,2.243991,0,0,0,0,0,0
57.68751,11.979619,-2.040578,-0.00168,-0.098197,0,3,3931197,4.91,102,102,102,5.87677,-2.247971,-12.218385,0.090207,0.018523,-0.026123,2.250739,0,0,0,0,0,0
57.68751,11.979619,-2.060924,-0.003054,-0.09499,0,3,3931207,4.92,102,102,102,5.898042,-2.240609,-12.219058,0.089502,0.018105,-0.025322,2.257427,0,0,0,0,0,0
57.68751,11.979619,-2.046562,-0.001833,-0.090408,0,3,3931217,4.93,102,102,102,5.919379,-2.23323,-12.21971,0.09075,0.018557,-0.024716,2.264055,0,0,0,0,0,0
57.68751,11.979619,-2.038184,-0.000305,-0.093768,0,3,3931227,4.94,102,102,102,5.94078,-2.225835,-12.220346,0.090357,0.018819,-0.024439,2.270625,0,0,0,0,0,0
57.68751,11.979619,-2.038184,-0.000305,-0.093768,0,3,3931237,4.95,102,102,102,5.962246,-2.218427,-12.220975,0.090048,0.019443,-0.025023,2.277135,0,0,0,0,0,0
57.68751,11.979619,-2.057334,-0.003207,-0.091477,0,3,3931247,4.96,102,102,102,5.983781,-2.211019,-12.22162,0.088925,0.0199,-0.025963,2.283588,0,0,0,0,0,0
57.68751,11.979619,-2.057334,-0.003207,-0.091477,0,3,3931257,4.97,102,102,102,6.005385,-2.203613,-12.222288,0.090474,0.019801,-0.024009,2.289982,0,0,0,0,0,0
57.68751,11.979619,-2.029807,-0.001527,-0.095142,0,3,3931267,4.98,102,102,102,6.027046,-2.196177,-12.222906,0.089773,0.019334,-0.025393,2.29632,0,0,0,0,0,0
57.68751,11.979619,-2.064515,-0.001985,-0.094531,0,3,3931277,4.99,102,102,102,6.048778,-2.18875,-12.22356,0.090918,0.01972,-0.024695,2.302601,0,0,0,0,0,0
57.68751,11.979619,-2.060924,-0.002902,-0.097128,0,3,3931286,4.999,102,102,102,6.07057,-2.181307,-12.224196,0.091004,0.019128,-0.025575,2.308826,0,0,0,0,0,0
57.68751,11.979619,-2.035791,-0.002902,-0.094379,0,3,3931297,5.01,102,102,102,6.092429,-2.173868,-12.224854,0.090086,0.018438,-0.025705,2.314996,0,0,0,0,0,0
57.68751,11.979619,-2.034594,-0.005956,-0.090408,0,3,3931307,5.02,102,102,102,6.114352,-2.166424,-12.225516,0.089818,0.017163,-0.024603,2.32111,0,0,0,0,0,0
57.68751,11.979619,-2.044169,-0.00901,-0.092546,0,3,3931317,5.03,102,102,102,6.136333,-2.158962,-12.226149,0.090124,0.015325,-0.024494,2.32717,0,0,0,0,0,0
57.687514,11.979618,-2.060924,-0.004734,-0.098502,0,3,3931327,5.04,126,126,126,1.994128,-1.859146,-5.873611,0.090896,0.015921,-0.025458,1.497095,0,0,0,0,0,0
57.687514,11.979618,-2.053743,-0.002749,-0.094226,0,3,3931337,5.05,126,126,126,2.00799,-1.853483,-5.874266,0.090718,0.016882,-0.025277,1.51051,0,0,0,0,0,0
57.687514,11.979618,-2.035791,-0.001374,-0.093921,0,3,3931347,5.06,126,126,126,2.021978,-1.847773,-5.874917,0.090038,0.01775,-0.025421,1.523806,0,0,0,0,0,0
57.687514,11.979618,-2.05853,0.001527,-0.092241,0,3,3931357,5.07,126,126,126,2.036093,-1.842021,-5.875572,0.090729,0.020021,-0.024455,1.536983,0,0,0,0,0,0
57.687514,11.979618,-2.05494,-0.000764,-0.090561,0,3,3931367,5.08,126,126,126,2.050328,-1.836215,-5.876201,0.090654,0.020252,-0.024261,1.550042,0,0,0,0,0,0
57.687514,11.979618,-2.062121,-0.001833,-0.090866,0,3,3931377,5.09,126,126,126,2.064685,-1.830364,-5.876826,0.090505,0.021623,-0.02404,1.562984,0,0,0,0,0,0
57.687514,11.979618,-2.060924,-0.002902,-0.092088,0,3,3931387,5.1,126,126,126,2.079163,-1.824469,-5.877445,0.090864,0.020958,-0.024019,1.575811,0,0,0,0,0,0
57.687514,11.979618,-2.033397,-0.003207,-0.087812,0,3,3931397,5.11,126,126,126,2.093763,-1.818531,-5.878063,0.090898,0.019988,-0.024418,1.588524,0,0,0,0,0,0
57.687514,11.979618,-2.031004,-0.000916,-0.095448,0,3,3931407,5.12,126,126,126,2.108485,-1.812557,-5.878692,0.089852,0.018941,-0.02416,1.601123,0,0,0,0,0,0
57.687514,11.979618,-2.0322,-0.002138,-0.090408,0,3,3931417,5.13,126,126,126,2.123326,-1.806539,-5.879314,0.089726,0.01924,-0.02521,1.61361,0,0,0,0,0,0
57.687514,11.979618,-2.063318,-0.004276,-0.092699,0,3,3931427,5.14,126,126,126,2.138291,-1.800495,-5.879963,0.089678,0.019175,-0.02439,1.625985,0,0,0,0,0,0
57.687514,11.979618,-2.033397,-0.005651,-0.094837,0,3,3931437,5.15,126,126,126,2.153369,-1.794401,-5.880591,0.090803,0.018735,-0.024092,1.63825,0,0,0,0,0,0
57.687514,11.979618,-2.035791,-0.004123,-0.089797,0,3,3931447,5.16,126,126,126,2.168562,-1.788266,-5.881211,0.089939,0.01706,-0.02542,1.650405,0,0,0,0,0,0
57.687514,11.979618,-2.042972,-0.004887,-0.095906,0,3,3931457,5.17,126,126,126,2.183878,-1.782108,-5.881865,0.089833,0.017107,-0.024332,1.662452,0,0,0,0,0,0
57.687514,11.979618,-2.063318,-0.002902,-0.097891,0,3,3931467,5.18,126,126,126,2.199303,-1.7759,-5.882492,0.090152,0.016779,-0.025116,1.674391,0,0,0,0,0,0
57.687514,11.979618,-2.050153,-0.006261,-0.092852,0,3,3931477,5.19,126,126,126,2.214846,-1.769664,-5.883138,0.090991,0.017595,-0.025454,1.686224,0,0,0,0,0,0
57.687514,11.979618,-2.039381,-0.005498,-0.098197,0,3,3931487,5.2,126,126,126,2.230503,-1.763397,-5.883794,0.090563,0.016473,-0.025117,1.697951,0,0,0,0,0,0
57.687514,11.979618,-2.053743,-0.001527,-0.087659,0,3,3931497,5.21,126,126,126,2.246271,-1.75709,-5.88444,0.090193,0.015877,-0.026098,1.709573,0,0,0,0,0,0
57.687514,11.979618,-2.051349,-0.001374,-0.094073,0,3,3931507,5.22,126,126,126,2.262155,-1.75076,-5.885112,0.09051,0.01772,-0.023849,1.721092,0,0,0,0,0,0
57.687514,11.979618,-2.051349,-0.001374,-0.094073,0,3,3931517,5.23,126,126,126,2.278138,-1.744369,-5.885726,0.090539,0.018502,-0.024777,1.732507,0,0,0,0,0,0
57.687514,11.979618,-2.039381,-0.002138,-0.096364,0,3,3931527,5.24,126,126,126,2.294236,-1.737955,-5.886364,0.091326,0.018617,-0.024127,1.743821,0,0,0,0,0,0
57.687514,11.979618,-2.044169,-0.00672,-0.095906,0,3,3931537,5.25,126,126,126,2.310438,-1.731499,-5.886985,0.090281,0.018281,-0.025833,1.755034,0,0,0,0,0,0
57.687514,11.979618,-2.068105,-0.002291,-0.096211,0,3,3931547,5.26,126,126,126,2.326756,-1.725031,-5.88765,0.090284,0.016743,-0.025621,1.766147,0,0,0,0,0,0
57.687514,11.979618,-2.053743,-0.001374,-0.094379,0,3,3931557,5.27,126,126,126,2.34318,-1.718528,-5.88831,0.091168,0.017921,-0.025208,1.777161,0,0,0,0,0,0
57.687514,11.979618,-2.02861,-0.004734,-0.095142,0,3,3931567,5.28,126,126,126,2.359708,-1.711989,-5.888959,0.090762,0.018541,-0.025369,1.788076,0,0,0,0,0,0
57.687514,11.979618,-2.05494,-0.004276,-0.098197,0,3,3931577,5.29,126,126,126,2.376342,-1.70542,-5.889612,0.089791,0.017284,-0.025833,1.798894,0,0,0,0,0,0
57.687514,11.979618,-2.057334,-0.003818,-0.093004,0,3,3931587,5.3,126,126,126,2.393082,-1.698827,-5.890277,0.09064,0.017348,-0.025678,1.809615,0,0,0,0,0,0
57.687514,11.979618,-2.057334,-0.003818,-0.093004,0,3,3931597,5.31,126,126,126,2.409925,-1.692201,-5.890938,0.09078,0.017499,-0.024928,1.820241,0,0,0,0,0,0
57.687514,11.979618,-2.053743,-0.002596,-0.096364,0,3,3931607,5.32,126,126,126,2.426867,-1.685537,-5.89158,0.090322,0.017376,-0.024576,1.830772,0,0,0,0,0,0
57.687514,11.979618,-2.046562,-0.00336,-0.095753,0,3,3931617,5.33,126,126,126,2.443908,-1.67884,-5.892213,0.09064,0.017883,-0.025272,1.841208,0,0,0,0,0,0
57.687514,11.979618,-2.056137,-0.001985,-0.09163,0,3,3931627,5.34,126,126,126,2.461054,-1.672122,-5.892863,0.090432,0.017734,-0.025565,1.851552,0,0,0,0,0,0
57.687514,11.979618,-2.05853,-0.001985,-0.096211,0,3,3931637,5.35,126,126,126,2.478301,-1.665379,-5.893521,0.090685,0.018515,-0.024571,1.861803,0,0,0,0,0,0
57.687514,11.979618,-2.050153,-0.005956,-0.096517,0,3,3931647,5.36,126,126,126,2.495643,-1.658597,-5.894154,0.090869,0.018796,-0.025309,1.871963,0,0,0,0,0,0
57.687514,11.979618,-2.0322,-0.005192,-0.094837,0,3,3931657,5.37,126,126,126,2.513086,-1.651796,-5.894806,0.090599,0.017253,-0.025759,1.882032,0,0,0,0,0,0
57.687514,11.979618,-2.068105,-0.003207,-0.093157,0,3,3931667,5.38,126,126,126,2.53063,-1.644974,-5.895469,0.089896,0.016455,-0.025727,1.892011,0,0,0,0,0,0
57.687514,11.979618,-2.068105,-0.003207,-0.093157,0,3,3931677,5.39,126,126,126,2.54827,-1.638125,-5.896131,0.091053,0.017577,-0.024475,1.901901,0,0,0,0,0,0
57.687514,11.979618,-2.046562,-0.007789,-0.09331,0,3,3931687,5.4,126,126,126,2.566,-1.631236,-5.896761,0.090683,0.017164,-0.025268,1.911703,0,0,0,0,0,0
57.687514,11.979618,-2.052546,-0.00336,-0.096364,0,3,3931697,5.41,126,126,126,2.583829,-1.62433,-5.897412,0.090382,0.015619,-0.025102,1.921418,0,0,0,0,0,0
57.687514,11.979618,-2.044169,-0.002596,-0.092546,0,3,3931707,5.42,126,126,126,2.601752,-1.617398,-5.898058,0.090617,0.01651,-0.025428,1.931045,0,0,0,0,0,0
57.687514,11.979618,-2.05494,-0.005803,-0.093615,0,3,3931717,5.43,126,126,126,2.61977,-1.610444,-5.898713,0.090299,0.017255,-0.024998,1.940587,0,0,0,0,0,0
57.687514,11.979618,-2.036988,-0.009621,-0.092852,0,3,3931727,5.44,126,126,126,2.637879,-1.603462,-5.899356,0.090628,0.016673,-0.024798,1.950043,0,0,0,0,0,0
57.687514,11.979618,-2.029807,-0.004123,-0.092393,0,3,3931737,5.45,126,126,126,2.656079,-1.596453,-5.899995,0.090007,0.014452,-0.025049,1.959416,0,0,0,0,0,0
57.687514,11.979618,-2.035791,-0.002291,-0.092088,0,3,3931747,5.46,126,126,126,2.674372,-1.589424,-5.90064,0.089672,0.015326,-0.024877,1.968704,0,0,0,0,0,0
57.687514,11.979618,-2.031004,-0.002902,-0.094073,0,3,3931757,5.47,126,126,126,2.692755,-1.58237,-5.90128,0.089829,0.016761,-0.024542,1.97791,0,0,0,0,0,0
57.687514,11.979618,-2.059727,-0.003665,-0.095906,0,3,3931767,5.48,126,126,126,2.711226,-1.57529,-5.901912,0.089704,0.017203,-0.025009,1.987033,0,0,0,0,0,0
57.687514,11.979618,-2.059727,-0.003665,-0.095906,0,3,3931777,5.49,126,126,126,2.729788,-1.568193,-5.902556,0.090749,0.01766,-0.024924,1.996075,0,0,0,0,0,0
57.687514,11.979618,-2.036988,-0.003207,-0.093921,0,3,3931787,5.5,126,126,126,2.748439,-1.561073,-5.903197,0.090214,0.017175,-0.025485,2.005036,0,0,0,0,0,0
57.687514,11.979618,-2.036988,-0.003207,-0.093921,0,3,3931797,5.51,126,126,126,2.767179,-1.553939,-5.903853,0.089993,0.017378,-0.025245,2.013917,0,0,0,0,0,0
57.687514,11.979618,-2.05494,-0.001985,-0.094837,0,3,3931807,5.52,126,126,126,2.786006,-1.546781,-5.904503,0.090997,0.019246,-0.024071,2.022719,0,0,0,0,0,0
57.687514,11.979618,-2.052546,0.000153,-0.097891,0,3,3931817,5.53,126,126,126,2.804914,-1.539589,-5.905123,0.090759,0.019106,-0.025119,2.031443,0,0,0,0,0,0
57.687514,11.979618,-2.051349,-0.00672,-0.099113,0,3,3931827,5.54,126,126,126,2.823913,-1.532389,-5.90577,0.09071,0.019853,-0.025897,2.040088,0,0,0,0,0,0
57.687514,11.979618,-2.044169,-0.005956,-0.089492,0,3,3931837,5.55,126,126,126,2.843,-1.525178,-5.906436,0.090662,0.017619,-0.02632,2.048657,0,0,0,0,0,0
57.687514,11.979618,-2.062121,-0.002138,-0.09499,0,3,3931847,5.56,126,126,126,2.862173,-1.517954,-5.907114,0.090254,0.016722,-0.024625,2.057149,0,0,0,0,0,0
57.687514,11.979618,-2.023823,-0.000305,-0.093462,0,3,3931857,5.57,126,126,126,2.881423,-1.510691,-5.907748,0.090912,0.017861,-0.024836,2.065565,0,0,0,0,0,0
57.687514,11.979618,-2.056137,-0.004429,-0.095448,0,3,3931867,5.58,126,126,126,2.900756,-1.503413,-5.908387,0.089627,0.018499,-0.025523,2.073906,0,0,0,0,0,0
57.687514,11.979618,-2.046562,-0.008399,-0.096517,0,3,3931877,5.59,126,126,126,2.920175,-1.496124,-5.909045,0.090602,0.018144,-0.024988,2.082172,0,0,0,0,0,0
57.687514,11.979618,-2.071695,-0.001374,-0.08827,0,3,3931887,5.6,126,126,126,2.939673,-1.488812,-5.909688,0.090412,0.015901,-0.025639,2.090365,0,0,0,0,0,0
57.687514,11.979618,-2.063318,-0.001527,-0.093462,0,3,3931897,5.61,126,126,126,2.959255,-1.481489,-5.910348,0.091194,0.017997,-0.023641,2.098484,0,0,0,0,0,0
57.687514,11.979618,-2.052546,-0.000916,-0.09728,0,3,3931907,5.62,126,126,126,2.978908,-1.474127,-5.910957,0.091067,0.018629,-0.02468,2.106532,0,0,0,0,0,0
57.687514,11.979618,-2.046562,-0.00733,-0.09499,0,3,3931917,5.63,126,126,126,2.998646,-1.466759,-5.911592,0.090741,0.019058,-0.025802,2.114507,0,0,0,0,0,0
57.687514,11.979618,-2.053743,-0.003207,-0.098349,0,3,3931927,5.64,126,126,126,3.018467,-1.459389,-5.912256,0.090425,0.016912,-0.025583,2.122411,0,0,0,0,0,0
57.687514,11.979618,-2.045365,-0.00336,-0.091324,0,3,3931937,5.65,126,126,126,3.038366,-1.452,-5.912915,0.090705,0.017332,-0.025928,2.130244,0,0,0,0,0,0
57.687514,11.979618,-2.038184,-0.005498,-0.094837,0,3,3931947,5.66,126,126,126,3.058345,-1.4446,-5.913582,0.09034,0.017505,-0.02489,2.138008,0,0,0,0,0,0
57.687514,11.979618,-2.038184,-0.005498,-0.094837,0,3,3931957,5.67,126,126,126,3.078396,-1.437174,-5.914223,0.090052,0.016618,-0.025323,2.145702,0,0,0,0,0,0
57.687514,11.979618,-2.070499,-0.00504,-0.096822,0,3,3931967,5.68,126,126,126,3.098526,-1.429737,-5.914875,0.090339,0.017399,-0.024773,2.153328,0,0,0,0,0,0
57.687514,11.979618,-2.050153,-0.000458,-0.095906,0,3,3931977,5.69,126,126,126,3.118729,-1.42228,-5.915513,0.091246,0.017215,-0.025121,2.160886,0,0,0,0,0,0
57.687514,11.979618,-2.022626,-0.003971,-0.095448,0,3,3931987,5.7,126,126,126,3.139009,-1.414812,-5.91616,0.090674,0.018347,-0.02574,2.168376,0,0,0,0,0,0
57.687514,11.979618,-2.022626,-0.003971,-0.095448,0,3,3931997,5.71,126,126,126,3.159367,-1.407338,-5.916822,0.089576,0.017398,-0.026045,2.175799,0,0,0,0,0,0
57.687514,11.979618,-2.053743,-0.003665,-0.093615,0,3,3932007,5.72,126,126,126,3.1798,-1.399855,-5.917493,0.090675,0.018742,-0.025737,2.183156,0,0,0,0,0,0
57.687514,11.979618,-2.053743,-0.003665,-0.093615,0,3,3932017,5.73,126,126,126,3.200306,-1.392355,-5.918155,0.090665,0.018321,-0.025144,2.190447,0,0,0,0,0,0
57.687514,11.979618,-2.059727,-0.000916,-0.092852,0,3,3932027,5.74,126,126,126,3.220882,-1.384836,-5.918803,0.090823,0.017737,-0.025451,2.197673,0,0,0,0,0,0
57.687514,11.979618,-2.059727,-0.000916,-0.092852,0,3,3932037,5.75,126,126,126,3.241531,-1.377308,-5.919458,0.090901,0.018851,-0.024879,2.204835,0,0,0,0,0,0
57.687514,11.979618,-2.046562,-0.001222,-0.089339,0,3,3932047,5.76,126,126,126,3.26225,-1.369761,-5.920099,0.090616,0.018432,-0.024704,2.211933,0,0,0,0,0,0
57.687514,11.979618,-2.059727,-0.000764,-0.092546,0,3,3932057,5.77,126,126,126,3.28304,-1.3622,-5.920735,0.090321,0.019044,-0.024172,2.218967,0,0,0,0,0,0
57.687514,11.979618,-2.029807,-0.001527,-0.092546,0,3,3932067,5.78,126,126,126,3.303897,-1.354621,-5.921357,0.090789,0.019787,-0.024334,2.225939,0,0,0,0,0,0
57.687514,11.979618,-2.038184,-0.001374,-0.092088,0,3,3932077,5.79,126,126,126,3.324826,-1.347033,-5.921983,0.089788,0.019321,-0.025085,2.232848,0,0,0,0,0,0
57.687514,11.979618,-2.027413,-0.002596,-0.096669,0,3,3932087,5.8,126,126,126,3.345827,-1.339442,-5.922629,0.089932,0.019556,-0.024612,2.239696,0,0,0,0,0,0
57.687514,11.979618,-2.027413,-0.002596,-0.096669,0,3,3932097,5.81,126,126,126,3.366894,-1.331834,-5.923263,0.08963,0.018865,-0.02565,2.246483,0,0,0,0,0,0
57.687514,11.979618,-2.044169,0.000153,-0.096364,0,3,3932107,5.82,126,126,126,3.388035,-1.324229,-5.923923,0.090291,0.018552,-0.024985,2.253209,0,0,0,0,0,0
57.687514,11.979618,-2.057334,-0.002749,-0.095142,0,3,3932117,5.83,126,126,126,3.409241,-1.316606,-5.924566,0.090306,0.019537,-0.025522,2.259875,0,0,0,0,0,0
57.687514,11.979618,-2.057334,-0.008399,-0.096364,0,3,3932127,5.84,126,126,126,3.430517,-1.30898,-5.925223,0.090757,0.019272,-0.025186,2.266481,0,0,0,0,0,0
57.687514,11.979618,-2.044169,-0.002596,-0.088881,0,3,3932137,5.85,126,126,126,3.451858,-1.30134,-5.925872,0.090822,0.016735,-0.025533,2.273029,0,0,0,0,0,0
57.687514,11.979618,-2.0322,-0.002749,-0.09331,0,3,3932147,5.86,126,126,126,3.473266,-1.293696,-5.926529,0.090274,0.017434,-0.024387,2.279518,0,0,0,0,0,0
57.687514,11.979618,-2.0322,-0.002749,-0.09331,0,3,3932157,5.87,126,126,126,3.494736,-1.286029,-5.927157,0.089804,0.017582,-0.024987,2.285949,0,0,0,0,0,0
57.687514,11.979618,-2.046562,-0.000458,-0.092852,0,3,3932167,5.88,126,126,126,3.516273,-1.278361,-5.9278,0.090482,0.017684,-0.024288,2.292323,0,0,0,0,0,0
57.687514,11.979618,-2.042972,-0.001374,-0.098349,0,3,3932177,5.89,126,126,126,3.537872,-1.270675,-5.928426,0.090354,0.018817,-0.024708,2.29864,0,0,0,0,0,0
57.687514,11.979618,-2.045365,-0.002291,-0.09499,0,3,3932187,5.9,126,126,126,3.559537,-1.262987,-5.929062,0.090295,0.019001,-0.025897,2.3049,0,0,0,0,0,0
57.687514,11.979618,-2.042972,-0.002443,-0.092393,0,3,3932197,5.91,126,126,126,3.58127,-1.255305,-5.929728,0.090332,0.018951,-0.025442,2.311105,0,0,0,0,0,0
57.687514,11.979618,-2.062121,-0.004581,-0.09499,0,3,3932207,5.92,126,126,126,3.603065,-1.24761,-5.930383,0.090201,0.018856,-0.024887,2.317254,0,0,0,0,0,0
57.687514,11.979618,-2.062121,-0.004581,-0.09499,0,3,3932217,5.93,126,126,126,3.62492,-1.239902,-5.931024,0.090892,0.018226,-0.024884,2.323348,0,0,0,0,0,0
57.687514,11.979618,-2.039381,-0.002443,-0.095295,0,3,3932227,5.94,126,126,126,3.646838,-1.232186,-5.931665,0.089776,0.017331,-0.026445,2.329388,0,0,0,0,0,0
57.687514,11.979618,-2.044169,-0.004887,-0.09499,0,3,3932237,5.95,126,126,126,3.668823,-1.224483,-5.932346,0.090049,0.017939,-0.025512,2.335374,0,0,0,0,0,0
57.687514,11.979618,-2.070499,-0.001069,-0.093768,0,3,3932247,5.96,126,126,126,3.690867,-1.216763,-5.933002,0.090233,0.017323,-0.025273,2.341307,0,0,0,0,0,0
57.687514,11.979618,-2.066908,-0.006109,-0.09163,0,3,3932257,5.97,126,126,126,3.71297,-1.209034,-5.933653,0.091204,0.018849,-0.024591,2.347187,0,0,0,0,0,0
57.687514,11.979618,-2.033397,-0.002291,-0.093004,0,3,3932267,5.98,126,126,126,3.73513,-1.201291,-5.934286,0.091163,0.017504,-0.024482,2.353014,0,0,0,0,0,0
57.687514,11.979618,-2.033397,-0.002291,-0.093004,0,3,3932277,5.99,126,126,126,3.757349,-1.193541,-5.934917,0.089992,0.017594,-0.025288,2.358789,0,0,0,0,0,0
57.687514,11.979618,-2.05853,-0.003818,-0.096822,0,3,3932287,6,126,126,126,3.779631,-1.185795,-5.935568,0.090432,0.016801,-0.025094,2.364512,0,0,0,0,0,0
57.687514,11.979618,-2.044169,-0.004734,-0.096211,0,3,3932297,6.01,126,126,126,3.801971,-1.178041,-5.936214,0.090843,0.01712,-0.025437,2.370185,0,0,0,0,0,0
57.687514,11.979618,-2.051349,-0.002443,-0.089797,0,3,3932307,6.02,126,126,126,3.824371,-1.170287,-5.936868,0.090386,0.016637,-0.025813,2.375807,0,0,0,0,0,0
57.687514,11.979618,-2.051349,-0.002443,-0.089797,0,3,3932317,6.03,126,126,126,3.846831,-1.162533,-5.937533,0.090481,0.017662,-0.024327,2.381378,0,0,0,0,0,0
57.687516,11.979617,-2.048956,-0.003665,-0.09331,0,3,3932327,6.04,150,150,150,1.151715,-1.513076,-3.711395,0.091215,0.019179,-0.024829,1.801925,0,0,0,0,0,0
57.687516,11.979617,-2.068105,-0.000611,-0.093157,0,3,3932337,6.05,150,150,150,1.136714,-1.503088,-3.712034,0.09056,0.018325,-0.025183,1.812619,0,0,0,0,0,0
57.687516,11.979617,-2.025019,-0.004581,-0.094226,0,3,3932347,6.06,150,150,150,1.121631,-1.493029,-3.712683,0.091159,0.019517,-0.024629,1.823218,0,0,0,0,0,0
57.687516,11.979617,-2.046562,-0.00733,-0.091324,0,3,3932357,6.07,150,150,150,1.106462,-1.482909,-3.713317,0.089698,0.017756,-0.025715,1.833722,0,0,0,0,0,0
57.687516,11.979617,-2.047759,-0.004123,-0.092393,0,3,3932367,6.08,150,150,150,1.091219,-1.47271,-3.713979,0.090195,0.016495,-0.024417,1.844132,0,0,0,0,0,0
57.687516,11.979617,-2.041775,-0.001374,-0.097128,0,3,3932377,6.09,150,150,150,1.075886,-1.462459,-3.714607,0.090332,0.016781,-0.024507,1.85445,0,0,0,0,0,0
57.687516,11.979617,-2.052546,-0.006261,-0.100793,0,3,3932387,6.1,150,150,150,1.060474,-1.452142,-3.715238,0.09023,0.017776,-0.025615,1.864675,0,0,0,0,0,0
57.687516,11.979617,-2.062121,-0.002749,-0.093462,0,3,3932397,6.11,150,150,150,1.044989,-1.441748,-3.715898,0.090656,0.016635,-0.026361,1.874809,0,0,0,0,0,0
57.687516,11.979617,-2.053743,-0.002749,-0.093462,0,3,3932407,6.12,150,150,150,1.029432,-1.43128,-3.716576,0.09098,0.017581,-0.025091,1.884853,0,0,0,0,0,0
57.687516,11.979617,-2.042972,-0.001222,-0.09331,0,3,3932417,6.13,150,150,150,1.013789,-1.42076,-3.717222,0.090709,0.017866,-0.025086,1.894807,0,0,0,0,0,0
57.687516,11.979617,-2.059727,-0.002291,-0.091477,0,3,3932427,6.14,150,150,150,0.998069,-1.410177,-3.717868,0.09028,0.018534,-0.025134,1.904672,0,0,0,0,0,0
57.687516,11.979617,-2.05494,-0.004429,-0.096059,0,3,3932437,6.15,150,150,150,0.982273,-1.399529,-3.718515,0.090776,0.018965,-0.024323,1.914449,0,0,0,0,0,0
57.687516,11.979617,-2.053743,-0.001222,-0.094226,0,3,3932447,6.16,150,150,150,0.966397,-1.388826,-3.719142,0.090737,0.018022,-0.025325,1.924139,0,0,0,0,0,0
57.687516,11.979617,-2.050153,-0.004276,-0.092699,0,3,3932457,6.17,150,150,150,0.950453,-1.37805,-3.719794,0.09069,0.018788,-0.025192,1.933743,0,0,0,0,0,0
57.687516,11.979617,-2.042972,-0.00336,-0.095142,0,3,3932467,6.18,150,150,150,0.934435,-1.367212,-3.720442,0.090512,0.018044,-0.024911,1.94326,0,0,0,0,0,0
57.687516,11.979617,-2.05853,-0.001374,-0.098807,0,3,3932477,6.19,150,150,150,0.918342,-1.356314,-3.721083,0.090265,0.017805,-0.025375,1.952693,0,0,0,0,0,0
57.687516,11.979617,-2.059727,-0.000458,-0.095142,0,3,3932487,6.2,150,150,150,0.902181,-1.34535,-3.721737,0.09086,0.018691,-0.025825,1.962041,0,0,0,0,0,0
57.687516,11.979617,-2.042972,-0.004429,-0.09499,0,3,3932497,6.21,150,150,150,0.885952,-1.334319,-3.722402,0.090951,0.019557,-0.025432,1.971306,0,0,0,0,0,0
57.687516,11.979617,-2.042972,-0.005498,-0.092852,0,3,3932507,6.22,150,150,150,0.869649,-1.323231,-3.723056,0.090336,0.018213,-0.025648,1.980489,0,0,0,0,0,0
57.687516,11.979617,-2.053743,-0.001374,-0.096517,0,3,3932517,6.23,150,150,150,0.853279,-1.312079,-3.723717,0.090202,0.017213,-0.025023,1.989589,0,0,0,0,0,0
57.687516,11.979617,-2.044169,-0.002749,-0.095295,0,3,3932527,6.24,150,150,150,0.836836,-1.300873,-3.724361,0.090636,0.018311,-0.025352,1.998608,0,0,0,0,0,0
57.687516,11.979617,-2.044169,-0.001833,-0.094226,0,3,3932537,6.25,150,150,150,0.820327,-1.289604,-3.725014,0.09034,0.018209,-0.025535,2.007547,0,0,0,0,0,0
57.687516,11.979617,-2.044169,-0.002749,-0.096517,0,3,3932547,6.26,150,150,150,0.803752,-1.278272,-3.725671,0.090281,0.01862,-0.025246,2.016406,0,0,0,0,0,0
57.687516,11.979617,-2.042972,-0.006872,-0.091324,0,3,3932557,6.27,150,150,150,0.787109,-1.266884,-3.726321,0.090299,0.018456,-0.025609,2.025185,0,0,0,0,0,0
57.687516,11.979617,-2.051349,-0.00168,-0.093004,0,3,3932567,6.28,150,150,150,0.770402,-1.255433,-3.72698,0.090164,0.01687,-0.024702,2.033887,0,0,0,0,0,0
57.687516,11.979617,-2.052546,-0.002138,-0.093157,0,3,3932577,6.29,150,150,150,0.753624,-1.243932,-3.727616,0.09048,0.018029,-0.024616,2.04251,0,0,0,0,0,0
57.687516,11.979617,-2.039381,0.001069,-0.096669,0,3,3932587,6.3,150,150,150,0.736781,-1.232374,-3.72825,0.090572,0.018478,-0.024739,2.051057,0,0,0,0,0,0
57.687516,11.979617,-2.040578,-0.004581,-0.094531,0,3,3932597,6.31,150,150,150,0.719875,-1.220756,-3.728887,0.090185,0.019675,-0.025723,2.059528,0,0,0,0,0,0
57.687516,11.979617,-2.042972,-0.002291,-0.093768,0,3,3932607,6.32,150,150,150,0.702913,-1.20907,-3.729549,0.09012,0.018418,-0.025356,2.067923,0,0,0,0,0,0
57.687516,11.979617,-2.035791,-0.003054,-0.092852,0,3,3932617,6.33,150,150,150,0.685886,-1.197331,-3.730202,0.090189,0.018611,-0.025049,2.076242,0,0,0,0,0,0
57.687516,11.979617,-2.042972,-0.002291,-0.09163,0,3,3932627,6.34,150,150,150,0.668795,-1.185537,-3.730847,0.089918,0.018301,-0.024955,2.084488,0,0,0,0,0,0
57.687516,11.979617,-2.066908,-0.00168,-0.094073,0,3,3932637,6.35,150,150,150,0.651643,-1.173688,-3.731489,0.090114,0.01863,-0.024457,2.09266,0,0,0,0,0,0
57.687516,11.979617,-2.044169,-0.002596,-0.096211,0,3,3932647,6.36,150,150,150,0.634427,-1.161787,-3.732119,0.09104,0.019329,-0.024487,2.100759,0,0,0,0,0,0
57.687516,11.979617,-2.041775,-0.004887,-0.094226,0,3,3932657,6.37,150,150,150,0.617151,-1.14983,-3.732749,0.090405,0.018711,-0.025688,2.108786,0,0,0,0,0,0
57.687516,11.979617,-2.047759,-0.003054,-0.093768,0,3,3932667,6.38,150,150,150,0.599825,-1.137805,-3.733411,0.090195,0.017681,-0.025353,2.116741,0,0,0,0,0,0
57.687516,11.979617,-2.047759,-0.003054,-0.093768,0,3,3932677,6.39,150,150,150,0.582438,-1.125727,-3.734063,0.090372,0.017926,-0.024992,2.124625,0,0,0,0,0,0
57.687516,11.979617,-2.046562,-0.004429,-0.094837,0,3,3932687,6.4,150,150,150,0.564992,-1.113598,-3.734707,0.090443,0.018022,-0.025023,2.132439,0,0,0,0,0,0
57.687516,11.979617,-2.041775,-0.002291,-0.094837,0,3,3932697,6.41,150,150,150,0.547488,-1.101414,-3.735351,0.090375,0.017466,-0.02525,2.140183,0,0,0,0,0,0
57.687516,11.979617,-2.036988,-0.003665,-0.092852,0,3,3932707,6.42,150,150,150,0.52993,-1.089172,-3.736001,0.090206,0.017913,-0.025355,2.147858,0,0,0,0,0,0
57.687516,11.979617,-2.041775,-0.000916,-0.093462,0,3,3932717,6.43,150,150,150,0.512317,-1.076875,-3.736654,0.089969,0.017669,-0.025007,2.155464,0,0,0,0,0,0
57.687516,11.979617,-2.041775,-0.006872,-0.08827,0,3,3932727,6.44,150,150,150,0.494646,-1.064528,-3.737298,0.090118,0.018707,-0.024866,2.163003,0,0,0,0,0,0
57.687516,11.979617,-2.029807,-0.000916,-0.096975,0,3,3932737,6.45,150,150,150,0.47692,-1.052129,-3.737938,0.090027,0.017094,-0.023884,2.170474,0,0,0,0,0,0
57.687516,11.979617,-2.044169,-0.003512,-0.0956,0,3,3932747,6.46,150,150,150,0.459133,-1.039686,-3.738553,0.089737,0.018003,-0.025531,2.177879,0,0,0,0,0,0
57.687516,11.979617,-2.044169,-0.003512,-0.0956,0,3,3932757,6.47,150,150,150,0.441305,-1.027174,-3.73921,0.090198,0.017968,-0.02527,2.185217,0,0,0,0,0,0
57.687516,11.979617,-2.040578,-0.005192,-0.095295,0,3,3932767,6.48,150,150,150,0.423422,-1.014611,-3.739861,0.090128,0.017102,-0.025402,2.19249,0,0,0,0,0,0
57.687516,11.979617,-2.063318,0.00168,-0.096669,0,3,3932777,6.49,150,150,150,0.405488,-1.001995,-3.740514,0.09047,0.017776,-0.024112,2.199698,0,0,0,0,0,0
57.687516,11.979617,-2.047759,-0.00733,-0.096059,0,3,3932787,6.5,150,150,150,0.387493,-0.989339,-3.741135,0.091023,0.019885,-0.02512,2.206842,0,0,0,0,0,0
57.687516,11.979617,-2.042972,-0.004734,-0.094226,0,3,3932797,6.51,150,150,150,0.369455,-0.976622,-3.741782,0.090519,0.017297,-0.025736,2.213921,0,0,0,0,0,0
57.687516,11.979617,-2.025019,0.035888,-0.095906,0,3,3932807,6.52,150,150,150,0.35137,-0.963846,-3.742445,0.090261,0.016876,-0.025382,2.220938,0,0,0,0,0,0
57.687516,11.979617,-2.052546,-0.002443,-0.094379,0,3,3932817,6.53,150,150,150,0.333234,-0.951023,-3.743098,0.089766,0.032198,-0.025821,2.227892,0,0,0,0,0,0
57.687516,11.979617,-2.052546,-0.002443,-0.094379,0,3,3932827,6.54,150,150,150,0.315052,-0.938143,-3.743763,0.090457,0.027158,-0.025025,2.234784,0,0,0,0,0,0
57.687516,11.979617,-2.034594,-0.000916,-0.097586,0,3,3932837,6.55,150,150,150,0.296817,-0.925221,-3.744407,0.089984,0.024098,-0.026044,2.241615,0,0,0,0,0,0
57.687516,11.979617,-2.021429,-0.003818,-0.094837,0,3,3932847,6.56,150,150,150,0.27854,-0.912238,-3.745077,0.089401,0.021137,-0.025761,2.248384,0,0,0,0,0,0
57.687516,11.979617,-2.046562,-0.000305,-0.092241,0,3,3932857,6.57,150,150,150,0.260215,-0.899207,-3.745741,0.090183,0.021346,-0.024498,2.255093,0,0,0,0,0,0
57.687516,11.979617,-2.029807,-0.000764,-0.093615,0,3,3932867,6.58,150,150,150,0.241833,-0.886139,-3.746371,0.089708,0.020709,-0.025093,2.261742,0,0,0,0,0,0
57.687516,11.979617,-2.063318,-0.00336,-0.098044,0,3,3932877,6.59,150,150,150,0.22341,-0.873015,-3.747017,0.090908,0.019911,-0.025317,2.268332,0,0,0,0,0,0
57.687516,11.979617,-2.053743,-0.004123,-0.093768,0,3,3932887,6.6,150,150,150,0.204942,-0.85984,-3.747669,0.090694,0.018763,-0.025179,2.274863,0,0,0,0,0,0
57.687516,11.979617,-2.047759,0.000305,-0.095448,0,3,3932897,6.61,150,150,150,0.186429,-0.846617,-3.748317,0.09049,0.019707,-0.025488,2.281336,0,0,0,0,0,0
57.687516,11.979617,-2.044169,-0.003665,-0.093462,0,3,3932907,6.62,150,150,150,0.167873,-0.833341,-3.748974,0.090281,0.018789,-0.025154,2.287751,0,0,0,0,0,0
57.687516,11.979617,-2.063318,-0.000916,-0.093615,0,3,3932916,6.629,150,150,150,0.149271,-0.820021,-3.749621,0.090946,0.019662,-0.024685,2.294109,0,0,0,0,0,0
57.687516,11.979617,-2.036988,-0.003054,-0.090713,0,3,3932927,6.64,150,150,150,0.130621,-0.806657,-3.750257,0.090042,0.018789,-0.024744,2.30041,0,0,0,0,0,0
57.687516,11.979617,-2.057334,-0.002291,-0.091019,0,3,3932937,6.65,150,150,150,0.111929,-0.793244,-3.750894,0.090636,0.019137,-0.024092,2.306654,0,0,0,0,0,0
57.687516,11.979617,-2.052546,-0.002443,-0.095142,0,3,3932947,6.66,150,150,150,0.09319,-0.779791,-3.751514,0.090617,0.018913,-0.025079,2.312843,0,0,0,0,0,0
57.687516,11.979617,-2.034594,-0.003207,-0.091324,0,3,3932957,6.67,150,150,150,0.074415,-0.76628,-3.75216,0.08992,0.018328,-0.024857,2.318977,0,0,0,0,0,0
57.687516,11.979617,-2.065711,-0.00168,-0.092852,0,3,3932967,6.68,150,150,150,0.055598,-0.752724,-3.7528,0.090953,0.019228,-0.024279,2.325056,0,0,0,0,0,0
57.687516,11.979617,-2.045365,-0.007636,-0.092699,0,3,3932977,6.69,150,150,150,0.036734,-0.739128,-3.753425,0.090352,0.016805,-0.024898,2.331081,0,0,0,0,0,0
57.687516,11.979617,-2.045365,-0.000611,-0.095448,0,3,3932987,6.7,150,150,150,0.017835,-0.725478,-3.754066,0.090344,0.018204,-0.025319,2.337051,0,0,0,0,0,0
57.687516,11.979617,-2.05494,-0.001527,-0.091477,0,3,3932997,6.71,150,150,150,-0.001101,-0.711778,-3.754718,0.090622,0.018974,-0.024472,2.342969,0,0,0,0,0,0
57.687516,11.979617,-2.047759,0.003971,-0.096211,0,3,3933007,6.72,150,150,150,-0.020083,-0.69804,-3.755348,0.090494,0.021234,-0.025448,2.348834,0,0,0,0,0,0
57.687516,11.979617,-2.041775,-0.00504,-0.095448,0,3,3933017,6.73,150,150,150,-0.039098,-0.684246,-3.756003,0.090218,0.019083,-0.025585,2.354646,0,0,0,0,0,0
57.687516,11.979617,-2.064515,-0.002749,-0.094684,0,3,3933027,6.74,150,150,150,-0.058149,-0.670405,-3.756661,0.090995,0.019155,-0.024947,2.360407,0,0,0,0,0,0
57.687516,11.979617,-2.063318,-0.006261,-0.08995,0,3,3933037,6.75,150,150,150,-0.077244,-0.656525,-3.757304,0.090976,0.017686,-0.024213,2.366116,0,0,0,0,0,0
57.687516,11.979617,-2.050153,-0.004734,-0.090561,0,3,3933047,6.76,150,150,150,-0.096381,-0.642607,-3.757927,0.090508,0.017129,-0.024382,2.371774,0,0,0,0,0,0
57.687516,11.979617,-2.05494,-0.002291,-0.094837,0,3,3933057,6.77,150,150,150,-0.115555,-0.628643,-3.758555,0.090687,0.017852,-0.024981,2.377382,0,0,0,0,0,0
57.687516,11.979617,-2.046562,-0.000916,-0.090561,0,3,3933067,6.78,150,150,150,-0.134761,-0.614628,-3.759198,0.09036,0.018775,-0.0245,2.382939,0,0,0,0,0,0
57.687516,11.979617,-2.050153,-0.003512,-0.093768,0,3,3933077,6.79,150,150,150,-0.154007,-0.600573,-3.759829,0.090466,0.018365,-0.02483,2.388447,0,0,0,0,0,0
57.687516,11.979617,-2.031004,-0.001985,-0.095142,0,3,3933087,6.8,150,150,150,-0.173286,-0.586471,-3.760468,0.089831,0.018346,-0.025548,2.393906,0,0,0,0,0,0
57.687516,11.979617,-2.035791,-0.002138,-0.094684,0,3,3933097,6.81,150,150,150,-0.192596,-0.572318,-3.761126,0.089902,0.018572,-0.02528,2.399316,0,0,0,0,0,0
57.687516,11.979617,-2.034594,-0.000764,-0.092852,0,3,3933107,6.82,150,150,150,-0.211942,-0.558123,-3.761776,0.089842,0.01924,-0.02491,2.404678,0,0,0,0,0,0
57.687516,11.979617,-2.071695,-0.005192,-0.093157,0,3,3933117,6.83,150,150,150,-0.231326,-0.543888,-3.762418,0.091144,0.018524,-0.02422,2.409992,0,0,0,0,0,0
57.687516,11.979617,-2.036988,-0.000611,-0.0956,0,3,3933127,6.84,150,150,150,-0.250749,-0.529618,-3.763041,0.09016,0.018855,-0.025671,2.415259,0,0,0,0,0,0
57.687516,11.979617,-2.036988,-0.001985,-0.095142,0,3,3933137,6.85,150,150,150,-0.270195,-0.515289,-3.763702,0.090009,0.018864,-0.025512,2.420478,0,0,0,0,0,0
57.687516,11.979617,-2.063318,0.000153,-0.091172,0,3,3933147,6.86,150,150,150,-0.289675,-0.500919,-3.764359,0.090871,0.020278,-0.024176,2.425651,0,0,0,0,0,0
57.687516,11.979617,-2.023823,-0.003207,-0.096211,0,3,3933157,6.87,150,150,150,-0.309197,-0.486519,-3.764981,0.089636,0.01874,-0.025909,2.430778,0,0,0,0,0,0
57.687516,11.979617,-2.048956,0.000153,-0.098197,0,3,3933167,6.88,150,150,150,-0.32874,-0.47206,-3.765648,0.090416,0.019905,-0.025742,2.435859,0,0,0,0,0,0
57.687516,11.979617,-2.069302,-0.000153,-0.094837,0,3,3933176,6.889,150,150,150,-0.348315,-0.457559,-3.766311,0.091213,0.020696,-0.025012,2.440895,0,0,0,0,0,0
57.687516,11.979617,-2.042972,-0.003665,-0.097128,0,3,3933187,6.9,150,150,150,-0.367927,-0.443024,-3.766955,0.090407,0.019056,-0.026084,2.445885,0,0,0,0,0,0
57.687516,11.979617,-2.053743,-0.003207,-0.090255,0,3,3933196,6.909,150,150,150,-0.387562,-0.428436,-3.767627,0.090573,0.018864,-0.024456,2.450831,0,0,0,0,0,0
57.687516,11.979617,-2.066908,-0.001833,-0.092852,0,3,3933207,6.92,150,150,150,-0.407239,-0.413822,-3.768256,0.091094,0.019317,-0.024434,2.455733,0,0,0,0,0,0
57.687516,11.979617,-2.066908,-0.00336,-0.095295,0,3,3933216,6.929,150,150,150,-0.426947,-0.399168,-3.768885,0.091212,0.018791,-0.025122,2.460592,0,0,0,0,0,0
57.687516,11.979617,-2.047759,-0.000764,-0.096822,0,3,3933227,6.94,150,150,150,-0.44668,-0.384465,-3.769532,0.090593,0.019128,-0.025955,2.465406,0,0,0,0,0,0
57.687516,11.979617,-2.017839,-0.000611,-0.099113,0,3,3933236,6.949,150,150,150,-0.466436,-0.369713,-3.7702,0.089467,0.019043,-0.026864,2.470178,0,0,0,0,0,0
57.687516,11.979617,-2.046562,-0.003818,-0.091935,0,3,3933247,6.96,150,150,150,-0.486214,-0.35491,-3.770892,0.090198,0.018747,-0.024706,2.474908,0,0,0,0,0,0
57.687516,11.979617,-2.057334,-0.00168,-0.094531,0,3,3933256,6.969,150,150,150,-0.506036,-0.340088,-3.771528,0.090721,0.019217,-0.024834,2.479595,0,0,0,0,0,0
57.687516,11.979617,-2.041775,-0.002291,-0.091783,0,3,3933267,6.98,150,150,150,-0.525886,-0.325224,-3.772167,0.090202,0.018938,-0.02481,2.48424,0,0,0,0,0,0
57.687516,11.979617,-2.034594,-0.002596,-0.089797,0,3,3933276,6.989,150,150,150,-0.545764,-0.310321,-3.772806,0.089824,0.018721,-0.024329,2.488844,0,0,0,0,0,0
57.687516,11.979617,-2.031004,-0.006261,-0.096517,0,3,3933287,7,150,150,150,-0.565673,-0.295383,-3.773432,0.08972,0.017007,-0.025448,2.493406,0,0,0,0,0,0
57.687516,11.979617,-2.053743,-0.003512,-0.09896,0,3,3933297,7.01,150,150,150,-0.585602,-0.280394,-3.774088,0.090596,0.01744,-0.025732,2.497928,0,0,0,0,0,0
57.687516,11.979617,-2.045365,-0.002596,-0.09728,0,3,3933307,7.02,150,150,150,-0.605555,-0.265362,-3.77475,0.090419,0.017739,-0.025969,2.50241,0,0,0,0,0,0
57.687516,11.979617,-2.044169,-0.005956,-0.092088,0,3,3933317,7.03,150,150,150,-0.625532,-0.250287,-3.775419,0.090251,0.016779,-0.024957,2.506852,0,0,0,0,0,0
57.687518,11.979616,-2.044169,0.000153,-0.095753,0,3,3933327,7.04,175,175,175,-0.643912,-1.23987,-0.69109,0.090855,0.018684,-0.02513,2.380998,0,0,0,0,0,0
57.687518,11.979616,-2.044169,0.000153,-0.095753,0,3,3933337,7.05,175,175,175,-0.62577,-1.255294,-0.691737,0.090391,0.019486,-0.025664,2.386523,0,0,0,0,0,0
57.687518,11.979616,-2.048956,-0.004429,-0.092699,0,3,3933347,7.06,175,175,175,-0.607599,-1.270769,-0.692397,0.090425,0.01849,-0.02492,2.391999,0,0,0,0,0,0
57.687518,11.979616,-2.045365,-0.000764,-0.094531,0,3,3933357,7.07,175,175,175,-0.589391,-1.286285,-0.693039,0.090337,0.019169,-0.025182,2.397426,0,0,0,0,0,0
57.687518,11.979616,-2.052546,0.001222,-0.093004,0,3,3933367,7.08,175,175,175,-0.571153,-1.301849,-0.693687,0.090566,0.02055,-0.024783,2.402805,0,0,0,0,0,0
57.687518,11.979616,-2.05853,-0.001833,-0.092852,0,3,3933377,7.09,175,175,175,-0.55288,-1.317455,-0.694325,0.090244,0.01937,-0.02564,2.408136,0,0,0,0,0,0
57.687518,11.979616,-2.05853,-0.001833,-0.092852,0,3,3933387,7.1,175,175,175,-0.534584,-1.333116,-0.694985,0.090758,0.019629,-0.024716,2.413419,0,0,0,0,0,0
57.687518,11.979616,-2.048956,-0.001527,-0.091783,0,3,3933397,7.11,175,175,175,-0.51625,-1.348813,-0.695622,0.090466,0.01959,-0.024675,2.418655,0,0,0,0,0,0
57.687518,11.979616,-2.052546,-0.001833,-0.09499,0,3,3933407,7.12,175,175,175,-0.497885,-1.364556,-0.696257,0.090314,0.018877,-0.024999,2.423844,0,0,0,0,0,0
57.687518,11.979616,-2.052546,-0.001833,-0.09499,0,3,3933417,7.13,175,175,175,-0.479493,-1.380346,-0.696901,0.09058,0.019128,-0.025121,2.428987,0,0,0,0,0,0
57.687518,11.979616,-2.045365,-0.000611,-0.094379,0,3,3933427,7.14,175,175,175,-0.461073,-1.396183,-0.697547,0.091153,0.019313,-0.025157,2.434084,0,0,0,0,0,0
57.687518,11.979616,-2.045365,-0.000611,-0.094379,0,3,3933437,7.15,175,175,175,-0.442624,-1.412064,-0.698195,0.090457,0.019544,-0.025504,2.439135,0,0,0,0,0,0
57.687518,11.979616,-2.02861,-0.000764,-0.094073,0,3,3933447,7.16,175,175,175,-0.424149,-1.427994,-0.698852,0.089739,0.019558,-0.025533,2.444142,0,0,0,0,0,0
57.687518,11.979616,-2.060924,-0.004429,-0.094531,0,3,3933457,7.17,175,175,175,-0.405648,-1.443968,-0.699509,0.090775,0.018858,-0.024777,2.449103,0,0,0,0,0,0
57.687518,11.979616,-2.056137,-0.002902,-0.093768,0,3,3933467,7.18,175,175,175,-0.387112,-1.459978,-0.700147,0.090757,0.018653,-0.024957,2.454021,0,0,0,0,0,0
57.687518,11.979616,-2.068105,-0.002596,-0.098807,0,3,3933477,7.19,175,175,175,-0.36855,-1.476034,-0.700789,0.091271,0.018734,-0.025767,2.458894,0,0,0,0,0,0
57.687518,11.979616,-2.039381,-0.001374,-0.090255,0,3,3933487,7.2,175,175,175,-0.349968,-1.492141,-0.701453,0.090202,0.018896,-0.024983,2.463724,0,0,0,0,0,0
57.687518,11.979616,-2.063318,-0.003971,-0.096059,0,3,3933497,7.21,175,175,175,-0.331354,-1.508284,-0.702096,0.090957,0.018486,-0.025095,2.468511,0,0,0,0,0,0
57.687518,11.979616,-2.020232,-0.002596,-0.094379,0,3,3933507,7.22,175,175,175,-0.312714,-1.524471,-0.702742,0.089514,0.0179,-0.025846,2.473255,0,0,0,0,0,0
57.687518,11.979616,-2.048956,-0.002443,-0.092088,0,3,3933517,7.23,175,175,175,-0.294055,-1.540708,-0.703407,0.090286,0.018567,-0.024478,2.477957,0,0,0,0,0,0
57.687518,11.979616,-2.031004,-0.004429,-0.09728,0,3,3933527,7.24,175,175,175,-0.275359,-1.556975,-0.704038,0.08982,0.017492,-0.025817,2.482617,0,0,0,0,0,0
57.687518,11.979616,-2.050153,-0.002443,-0.089492,0,3,3933537,7.25,175,175,175,-0.25665,-1.573296,-0.704702,0.090337,0.018322,-0.024064,2.487235,0,0,0,0,0,0
57.687518,11.979616,-2.048956,0.000764,-0.094837,0,3,3933547,7.26,175,175,175,-0.237901,-1.589643,-0.705322,0.090448,0.019699,-0.024949,2.491812,0,0,0,0,0,0
57.687518,11.979616,-2.056137,-0.001527,-0.092088,0,3,3933557,7.27,175,175,175,-0.219135,-1.60604,-0.705964,0.090366,0.019454,-0.025063,2.496349,0,0,0,0,0,0
57.687518,11.979616,-2.056137,-0.001527,-0.092088,0,3,3933567,7.28,175,175,175,-0.200346,-1.622479,-0.706609,0.090671,0.019719,-0.024528,2.500844,0,0,0,0,0,0
57.687518,11.979616,-2.046562,-0.003207,-0.09331,0,3,3933577,7.29,175,175,175,-0.181529,-1.638954,-0.707241,0.09038,0.018924,-0.024939,2.5053,0,0,0,0,0,0
57.687518,11.979616,-2.031004,-0.001527,-0.098349,0,3,3933587,7.3,175,175,175,-0.162692,-1.655474,-0.707883,0.089872,0.018811,-0.026169,2.509716,0,0,0,0,0,0
57.687518,11.979616,-2.021429,-0.001069,-0.097128,0,3,3933597,7.31,175,175,175,-0.143842,-1.672047,-0.708557,0.089447,0.018987,-0.026167,2.514092,0,0,0,0,0,0
57.687518,11.979616,-2.057334,-0.003207,-0.092241,0,3,3933607,7.32,175,175,175,-0.12497,-1.688661,-0.70923,0.090578,0.019097,-0.024412,2.518429,0,0,0,0,0,0
57.687518,11.979616,-2.060924,-0.002291,-0.096211,0,3,3933617,7.33,175,175,175,-0.106062,-1.7053,-0.709859,0.090932,0.019091,-0.02519,2.522728,0,0,0,0,0,0
57.687518,11.979616,-2.076483,-0.002443,-0.096975,0,3,3933627,7.34,175,175,175,-0.087138,-1.721985,-0.710507,0.091575,0.019208,-0.025388,2.526988,0,0,0,0,0,0
57.687518,11.979616,-2.053743,-0.003512,-0.095906,0,3,3933637,7.35,175,175,175,-0.068194,-1.738712,-0.711161,0.090844,0.018344,-0.025881,2.53121,0,0,0,0,0,0
57.687518,11.979616,-2.048956,-0.001527,-0.095753,0,3,3933647,7.36,175,175,175,-0.049233,-1.755485,-0.711827,0.090107,0.018313,-0.025095,2.535395,0,0,0,0,0,0
57.687518,11.979616,-2.048956,-0.001527,-0.095753,0,3,3933657,7.37,175,175,175,-0.030246,-1.772289,-0.712473,0.090434,0.018886,-0.025269,2.539542,0,0,0,0,0,0
57.687518,11.979616,-2.036988,-0.000611,-0.092088,0,3,3933667,7.38,175,175,175,-0.011239,-1.789135,-0.713124,0.090003,0.019405,-0.024933,2.543652,0,0,0,0,0,0
57.687518,11.979616,-2.046562,-0.005192,-0.098807,0,3,3933676,7.389,175,175,175,0.007791,-1.806016,-0.713766,0.09036,0.01802,-0.025837,2.547726,0,0,0,0,0,0
57.687518,11.979616,-2.025019,-0.002902,-0.09331,0,3,3933687,7.4,175,175,175,0.026833,-1.822945,-0.714431,0.089582,0.017802,-0.025476,2.551763,0,0,0,0,0,0
57.687518,11.979616,-2.044169,-0.002443,-0.095906,0,3,3933697,7.41,175,175,175,0.045898,-1.83991,-0.715087,0.090182,0.018296,-0.025254,2.555764,0,0,0,0,0,0
57.687518,11.979616,-2.050153,-0.004887,-0.093462,0,3,3933707,7.42,175,175,175,0.064983,-1.856912,-0.715737,0.09044,0.017629,-0.024866,2.559729,0,0,0,0,0,0
57.687518,11.979616,-2.057334,-0.003971,-0.09163,0,3,3933716,7.429,175,175,175,0.08409,-1.873948,-0.716377,0.09071,0.017661,-0.024396,2.563659,0,0,0,0,0,0
57.687518,11.979616,-2.051349,-0.002596,-0.094226,0,3,3933726,7.439,175,175,175,0.10322,-1.891017,-0.717005,0.090579,0.017957,-0.025012,2.567554,0,0,0,0,0,0
57.687518,11.979616,-2.044169,-0.00168,-0.093157,0,3,3933736,7.449,175,175,175,0.122364,-1.90813,-0.717649,0.090296,0.018465,-0.025014,2.571414,0,0,0,0,0,0
57.687518,11.979616,-2.039381,-0.007178,-0.093921,0,3,3933747,7.46,175,175,175,0.141526,-1.925281,-0.718293,0.090065,0.016604,-0.025138,2.57524,0,0,0,0,0,0
57.687518,11.979616,-2.044169,-0.001833,-0.096822,0,3,3933756,7.469,175,175,175,0.160704,-1.942471,-0.71894,0.090276,0.017639,-0.025547,2.579031,0,0,0,0,0,0
57.687518,11.979616,-2.051349,-0.004887,-0.095753,0,3,3933767,7.48,175,175,175,0.179896,-1.959702,-0.719598,0.090543,0.017181,-0.025396,2.582789,0,0,0,0,0,0
57.687518,11.979616,-2.052546,-0.005651,-0.099113,0,3,3933776,7.489,175,175,175,0.199107,-1.976968,-0.720252,0.09068,0.016461,-0.026106,2.586513,0,0,0,0,0,0
57.687518,11.979616,-2.052546,-0.001222,-0.096364,0,3,3933786,7.499,175,175,175,0.218328,-1.994279,-0.720924,0.09069,0.01782,-0.025778,2.590204,0,0,0,0,0,0
57.687518,11.979616,-2.05853,-0.001985,-0.0956,0,3,3933796,7.509,175,175,175,0.237568,-2.011624,-0.721588,0.090882,0.018446,-0.02546,2.593862,0,0,0,0,0,0
57.687518,11.979616,-2.050153,0,-0.091935,0,3,3933806,7.519,175,175,175,0.256827,-2.029003,-0.722243,0.090554,0.019487,-0.024896,2.597487,0,0,0,0,0,0
57.687518,11.979616,-2.05494,-0.001374,-0.094837,0,3,3933816,7.529,175,175,175,0.276106,-2.046413,-0.722884,0.090702,0.019649,-0.025126,2.60108,0,0,0,0,0,0
57.687518,11.979616,-2.026216,-0.005651,-0.094073,0,3,3933826,7.539,175,175,175,0.295399,-2.063861,-0.723531,0.089667,0.017589,-0.025592,2.604641,0,0,0,0,0,0
57.687518,11.979616,-2.029807,-0.001527,-0.093157,0,3,3933837,7.55,175,175,175,0.314704,-2.08135,-0.72419,0.089641,0.018338,-0.025024,2.60817,0,0,0,0,0,0
57.687518,11.979616,-2.051349,-0.003665,-0.093462,0,3,3933847,7.56,175,175,175,0.334028,-2.098869,-0.724834,0.090395,0.018288,-0.024574,2.611667,0,0,0,0,0,0
57.687518,11.979616,-2.050153,0.000764,-0.091019,0,3,3933857,7.57,175,175,175,0.353371,-2.11642,-0.725467,0.090447,0.019804,-0.024318,2.615134,0,0,0,0,0,0
57.687518,11.979616,-2.036988,-0.002749,-0.090866,0,3,3933867,7.58,175,175,175,0.372731,-2.134003,-0.726093,0.089957,0.019108,-0.024489,2.618569,0,0,0,0,0,0
57.687518,11.979616,-2.062121,0.002138,-0.094684,0,3,3933877,7.59,175,175,175,0.392104,-2.151623,-0.726723,0.090868,0.021058,-0.024634,2.621974,0,0,0,0,0,0
57.687518,11.979616,-2.052546,-0.000305,-0.094073,0,3,3933887,7.6,175,175,175,0.41149,-2.16928,-0.727357,0.090651,0.020901,-0.025093,2.625348,0,0,0,0,0,0
57.687518,11.979616,-2.076483,-0.001985,-0.093462,0,3,3933897,7.61,175,175,175,0.430887,-2.186975,-0.728003,0.091206,0.019592,-0.025317,2.628692,0,0,0,0,0,0
57.687518,11.979616,-2.053743,-0.003818,-0.092546,0,3,3933907,7.62,175,175,175,0.450295,-2.204708,-0.728655,0.091565,0.01971,-0.024841,2.632007,0,0,0,0,0,0
57.687518,11.979616,-2.076483,-0.002138,-0.093768,0,3,3933917,7.63,175,175,175,0.46972,-2.22247,-0.729295,0.090776,0.018591,-0.025097,2.635291,0,0,0,0,0,0
57.687518,11.979616,-2.056137,-0.002749,-0.093768,0,3,3933927,7.64,175,175,175,0.489156,-2.240269,-0.729941,0.091497,0.019144,-0.024672,2.638547,0,0,0,0,0,0
57.687518,11.979616,-2.056137,-0.002749,-0.093768,0,3,3933937,7.65,175,175,175,0.508609,-2.258099,-0.730576,0.090874,0.018685,-0.025227,2.641773,0,0,0,0,0,0
57.687518,11.979616,-2.060924,-0.004276,-0.093768,0,3,3933947,7.66,175,175,175,0.528069,-2.275967,-0.731226,0.090476,0.020168,-0.024972,2.644971,0,0,0,0,0,0
57.687518,11.979616,-2.060924,-0.004276,-0.093768,0,3,3933957,7.67,175,175,175,0.547544,-2.293868,-0.731868,0.090874,0.01908,-0.024802,2.64814,0,0,0,0,0,0
57.687518,11.979616,-2.05853,-0.005345,-0.089797,0,3,3933967,7.68,175,175,175,0.567032,-2.3118,-0.732507,0.091217,0.019606,-0.024883,2.651281,0,0,0,0,0,0
57.687518,11.979616,-2.038184,-0.003971,-0.095142,0,3,3933977,7.69,175,175,175,0.586532,-2.329766,-0.733148,0.09084,0.018178,-0.024344,2.654393,0,0,0,0,0,0
57.687518,11.979616,-2.053743,-0.008247,-0.095448,0,3,3933987,7.7,175,175,175,0.606048,-2.347761,-0.733774,0.090135,0.017453,-0.025465,2.657478,0,0,0,0,0,0
57.687518,11.979616,-2.053743,-0.008247,-0.095448,0,3,3933997,7.71,175,175,175,0.625566,-2.365799,-0.73443,0.090586,0.015838,-0.025219,2.660536,0,0,0,0,0,0
57.687518,11.979616,-2.011854,-0.000305,-0.095753,0,3,3934007,7.72,175,175,175,0.645097,-2.383869,-0.735079,0.090766,0.015489,-0.024917,2.663566,0,0,0,0,0,0
57.687518,11.979616,-2.034594,-0.001069,-0.094837,0,3,3934017,7.73,175,175,175,0.664641,-2.401968,-0.735721,0.089218,0.016849,-0.026129,2.666569,0,0,0,0,0,0
57.687518,11.979616,-2.062121,-0.002291,-0.09163,0,3,3934027,7.74,175,175,175,0.684185,-2.420111,-0.736393,0.089779,0.018252,-0.025206,2.669545,0,0,0,0,0,0
57.687518,11.979616,-2.048956,-0.002596,-0.096975,0,3,3934037,7.75,175,175,175,0.703747,-2.438279,-0.737042,0.090784,0.01897,-0.024123,2.672495,0,0,0,0,0,0
57.687518,11.979616,-2.057334,-0.005498,-0.097891,0,3,3934047,7.76,175,175,175,0.723329,-2.456469,-0.737663,0.090542,0.018607,-0.025567,2.675418,0,0,0,0,0,0
57.687518,11.979616,-2.0322,-0.005498,-0.096669,0,3,3934057,7.77,175,175,175,0.742908,-2.474705,-0.738322,0.090832,0.017503,-0.025828,2.678316,0,0,0,0,0,0
57.687518,11.979616,-2.046562,-0.007636,-0.095906,0,3,3934067,7.78,175,175,175,0.762495,-2.492975,-0.738986,0.089964,0.01638,-0.026198,2.681187,0,0,0,0,0,0
57.687518,11.979616,-2.046562,-0.007636,-0.095906,0,3,3934077,7.79,175,175,175,0.782088,-2.511282,-0.739661,0.090325,0.015377,-0.025525,2.684033,0,0,0,0,0,0
57.687518,11.979616,-2.0322,-0.005498,-0.093615,0,3,3934087,7.8,175,175,175,0.801695,-2.529614,-0.740318,0.08966,0.016363,-0.025278,2.686853,0,0,0,0,0,0
57.687518,11.979616,-2.0322,-0.005498,-0.093615,0,3,3934097,7.81,175,175,175,0.821313,-2.547976,-0.740969,0.089714,0.01606,-0.024995,2.689648,0,0,0,0,0,0
57.687518,11.979616,-2.048956,-0.000916,-0.094837,0,3,3934107,7.82,175,175,175,0.840942,-2.566367,-0.741612,0.090424,0.017207,-0.025206,2.692419,0,0,0,0,0,0
57.687518,11.979616,-2.048956,-0.000916,-0.094837,0,3,3934117,7.83,175,175,175,0.860577,-2.584791,-0.742261,0.090478,0.018398,-0.025237,2.695164,0,0,0,0,0,0
57.687518,11.979616,-2.063318,-0.005192,-0.094226,0,3,3934127,7.84,175,175,175,0.880221,-2.603247,-0.742911,0.090219,0.017603,-0.025488,2.697885,0,0,0,0,0,0
57.687518,11.979616,-2.063318,-0.005192,-0.094226,0,3,3934137,7.85,175,175,175,0.899871,-2.621736,-0.743567,0.090936,0.017291,-0.024852,2.700582,0,0,0,0,0,0
57.687518,11.979616,-2.051349,-0.002291,-0.091477,0,3,3934147,7.86,175,175,175,0.919534,-2.640251,-0.744207,0.090071,0.017269,-0.025036,2.703255,0,0,0,0,0,0
57.687518,11.979616,-2.062121,-0.002749,-0.097891,0,3,3934157,7.87,175,175,175,0.939203,-2.658798,-0.744852,0.090442,0.018111,-0.024357,2.705904,0,0,0,0,0,0
57.687518,11.979616,-2.065711,-0.000916,-0.095295,0,3,3934167,7.88,175,175,175,0.958885,-2.677369,-0.745479,0.09098,0.018327,-0.025427,2.708529,0,0,0,0,0,0
57.687518,11.979616,-2.065711,-0.000916,-0.095295,0,3,3934177,7.89,175,175,175,0.978566,-2.69598,-0.746133,0.09118,0.019203,-0.025315,2.71113,0,0,0,0,0,0
57.687518,11.979616,-2.033397,-0.004276,-0.096211,0,3,3934187,7.9,175,175,175,0.998255,-2.714621,-0.746785,0.090213,0.019443,-0.026265,2.713709,0,0,0,0,0,0
57.687518,11.979616,-2.036988,-0.002443,-0.096669,0,3,3934197,7.91,175,175,175,1.017942,-2.733301,-0.747461,0.089905,0.018252,-0.025943,2.716264,0,0,0,0,0,0
57.687518,11.979616,-2.056137,-0.002596,-0.089034,0,3,3934207,7.92,175,175,175,1.037638,-2.752009,-0.748129,0.089996,0.018364,-0.025767,2.718797,0,0,0,0,0,0
57.687518,11.979616,-2.050153,-0.002138,-0.096669,0,3,3934217,7.93,175,175,175,1.057342,-2.770745,-0.748792,0.09057,0.018851,-0.023934,2.721307,0,0,0,0,0,0
57.687518,11.979616,-2.031004,-0.003818,-0.098807,0,3,3934227,7.94,175,175,175,1.077068,-2.789495,-0.749409,0.090544,0.018791,-0.025356,2.723795,0,0,0,0,0,0
57.687518,11.979616,-2.053743,-0.002138,-0.090713,0,3,3934237,7.95,175,175,175,1.096788,-2.808287,-0.750061,0.089904,0.017798,-0.02642,2.72626,0,0,0,0,0,0
57.687518,11.979616,-2.051349,-0.004734,-0.094684,0,3,3934247,7.96,175,175,175,1.116504,-2.827118,-0.750742,0.090511,0.018661,-0.024412,2.728704,0,0,0,0,0,0
