X GPS (deg),Y GPS (deg),Accelerometer Y (rad/s^2),Gyroscope X (rad/s),Gyroscope Z (rad/s),Steering Angle encoder(rad),Speed GPS (m/s),Time (ms),Time,flag,flag,flag,State Estimate X (m),State Estimate Y (m),State Estimate Psi (rad),State Estimate Roll (rad),State Estimate Rollrate (rad/s),State Estimate Delta (rad),State Estimate Velocity (m/s),Steerrate input (rad/s),drct,drct,drct,drct,drct
0,0,-0.351865,-0.007483,-0.091783,0.025642,3,9756075,0,0,0,0,-141440,-4072044,-8254479.504,0.015987,0.437103,0.024177,-678599.2734,0,0,0,0,0,0
0,0,-0.341094,-0.005498,-0.096059,0.025642,3,9756085,0.01,0,0,0,-142894,-4065415,-8254479.503,0.015511,0.419927,0.024159,-672541.9338,0,0,0,0,0,0
0,0,-0.360243,-0.00672,-0.088117,0.025642,3,9756095,0.02,0,0,0,-144339,-4058847,-8254479.502,0.016175,0.403817,0.024197,-666538.6632,0,0,0,0,0,0
0,0,-0.347078,-0.008247,-0.091324,0.025642,3,9756105,0.03,0,0,0,-145775,-4052338,-8254479.502,0.015743,0.388296,0.024196,-660588.979,0,0,0,0,0,0
0,0,-0.347078,-0.00336,-0.086437,0.025642,3,9756115,0.04,0,0,0,-147202,-4045888,-8254479.501,0.015664,0.373853,0.024224,-654692.4029,0,0,0,0,0,0
0,0,-0.344684,-0.005498,-0.087812,0.025642,3,9756125,0.05,0,0,0,-148620,-4039497,-8254479.5,0.015543,0.360031,0.024232,-648848.4607,0,0,0,0,0,0
0,0,-0.349471,-0.006414,-0.090561,0.025642,3,9756135,0.06,0,0,0,-150030,-4033163,-8254479.5,0.0157,0.346937,0.024226,-643056.6828,0,0,0,0,0,0
0,0,-0.342291,-0.004734,-0.091783,0.025642,3,9756145,0.07,0,0,0,-151431,-4026887,-8254479.499,0.015431,0.334524,0.024219,-637316.6035,0,0,0,0,0,0
0,0,-0.339897,-0.005803,-0.092852,0.025642,3,9756155,0.08,0,0,0,-152823,-4020668,-8254479.499,0.015283,0.32269,0.024213,-631627.7613,0,0,0,0,0,0
0,0,-0.344684,-0.005803,-0.091935,0.025642,3,9756165,0.09,0,0,0,-154207,-4014505,-8254479.498,0.015438,0.311531,0.024219,-625989.6988,0,0,0,0,0,0
0,0,-0.347078,-0.001374,-0.090561,0.025642,3,9756175,0.1,0,0,0,-155582,-4008398,-8254479.497,0.015498,0.300995,0.024252,-620401.9627,0,0,0,0,0,0
0,0,-0.351865,-0.004887,-0.088423,0.025642,3,9756185,0.11,0,0,0,-156949,-4002346,-8254479.497,0.015548,0.291202,0.024246,-614864.1039,0,0,0,0,0,0
0,0,-0.367424,-0.009621,-0.087812,0.025642,3,9756195,0.12,0,0,0,-158307,-3996350,-8254479.496,0.015733,0.281795,0.024256,-609375.6772,0,0,0,0,0,0
0,0,-0.367424,-0.009621,-0.087812,0.025642,3,9756205,0.13,0,0,0,-159657,-3990407,-8254479.495,0.016364,0.272798,0.024266,-603936.2413,0,0,0,0,0,0
0,0,-0.342291,-0.003665,-0.090561,0.025642,3,9756215,0.14,0,0,0,-160998,-3984519,-8254479.495,0.015936,0.264306,0.024268,-598545.3588,0,0,0,0,0,0
0,0,-0.342291,-0.003665,-0.090561,0.025642,3,9756225,0.15,0,0,0,-162332,-3978684,-8254479.494,0.015392,0.256238,0.024258,-593202.5964,0,0,0,0,0,0
0,0,-0.36144,-0.005192,-0.093157,0.025642,3,9756235,0.16,0,0,0,-163656,-3972901,-8254479.494,0.016244,0.248801,0.024264,-587907.5246,0,0,0,0,0,0
0,0,-0.36144,-0.005192,-0.093157,0.025642,3,9756245,0.17,0,0,0,-164973,-3967172,-8254479.493,0.01618,0.24165,0.024248,-582659.7177,0,0,0,0,0,0
0,0,-0.348275,-0.007789,-0.092699,0.025642,3,9756255,0.18,0,0,0,-166281,-3961494,-8254479.492,0.016212,0.234995,0.024253,-577458.7538,0,0,0,0,0,0
0,0,-0.348275,-0.007789,-0.092699,0.025642,3,9756265,0.19,0,0,0,-167582,-3955868,-8254479.492,0.015642,0.228296,0.024246,-572304.2147,0,0,0,0,0,0
0,0,-0.363833,-0.006414,-0.087812,0.025642,3,9756275,0.2,0,0,0,-168874,-3950292,-8254479.491,0.01583,0.222003,0.024251,-567195.686,0,0,0,0,0,0
0,0,-0.363833,-0.006414,-0.087812,0.025642,3,9756285,0.21,0,0,0,-170158,-3944768,-8254479.49,0.016185,0.216237,0.024275,-562132.7571,0,0,0,0,0,0
0,0,-0.355456,-0.00504,-0.096059,0.025642,3,9756295,0.22,0,0,0,-171434,-3939293,-8254479.49,0.015243,0.210484,0.024265,-557115.0209,0,0,0,0,0,0
0,0,-0.362636,-0.00733,-0.088881,0.025642,3,9756305,0.23,0,0,0,-172702,-3933868,-8254479.489,0.015755,0.205316,0.024245,-552142.074,0,0,0,0,0,0
0,0,-0.329125,-0.005192,-0.094684,0.025642,3,9756315,0.24,0,0,0,-173962,-3928492,-8254479.489,0.01611,0.200362,0.02427,-547213.5167,0,0,0,0,0,0
0,0,-0.329125,-0.005192,-0.094684,0.025642,3,9756325,0.25,0,0,0,-175214,-3923165,-8254479.488,0.014841,0.195396,0.024249,-542328.9526,0,0,0,0,0,0
0,0,-0.341094,-0.006567,-0.091019,0.025642,3,9756335,0.26,0,0,0,-176458,-3917887,-8254479.487,0.015394,0.190863,0.024266,-537487.9891,0,0,0,0,0,0
0,0,-0.341094,-0.006567,-0.091019,0.025642,3,9756345,0.27,0,0,0,-177695,-3912656,-8254479.487,0.015192,0.186487,0.02427,-532690.237,0,0,0,0,0,0
0,0,-0.354259,-0.008858,-0.094226,0.025642,3,9756355,0.28,0,0,0,-178923,-3907473,-8254479.486,0.016055,0.182661,0.024264,-527935.3107,0,0,0,0,0,0
0,0,-0.354259,-0.008858,-0.094226,0.025642,3,9756365,0.29,0,0,0,-180144,-3902336,-8254479.485,0.015805,0.178703,0.024255,-523222.8277,0,0,0,0,0,0
0,0,-0.380589,-0.009163,-0.092546,0.025642,3,9756375,0.3,0,0,0,-181357,-3897247,-8254479.485,0.016802,0.175227,0.024265,-518552.4093,0,0,0,0,0,0
0,0,-0.379392,-0.009316,-0.092699,0.025642,3,9756385,0.31,0,0,0,-182563,-3892203,-8254479.484,0.016905,0.171865,0.024265,-513923.68,0,0,0,0,0,0
0,0,-0.345881,-0.003512,-0.089186,0.025642,3,9756395,0.32,0,0,0,-183760,-3887206,-8254479.484,0.015599,0.168611,0.024278,-509336.2677,0,0,0,0,0,0
0,0,-0.359046,-0.004581,-0.091019,0.025642,3,9756405,0.33,0,0,0,-184951,-3882253,-8254479.483,0.015913,0.165672,0.024282,-504789.8035,0,0,0,0,0,0
0,0,-0.343487,-0.003818,-0.093462,0.025642,3,9756415,0.34,0,0,0,-186133,-3877346,-8254479.482,0.015346,0.162742,0.024269,-500283.922,0,0,0,0,0,0
0,0,-0.33511,-0.004581,-0.09499,0.025642,3,9756425,0.35,0,0,0,-187308,-3872483,-8254479.482,0.014925,0.159864,0.024258,-495818.2609,0,0,0,0,0,0
0,0,-0.363833,-0.004734,-0.085368,0.025642,3,9756435,0.36,0,0,0,-188476,-3867664,-8254479.481,0.015989,0.157461,0.024305,-491392.4612,0,0,0,0,0,0
0,0,-0.33511,-0.005192,-0.094379,0.025642,3,9756445,0.37,0,0,0,-189636,-3862889,-8254479.48,0.015018,0.154797,0.024274,-487006.167,0,0,0,0,0,0
0,0,-0.363833,-0.005803,-0.087659,0.025642,3,9756455,0.38,0,0,0,-190789,-3858158,-8254479.48,0.015386,0.152507,0.024285,-482659.0258,0,0,0,0,0,0
0,0,-0.363833,-0.005803,-0.087659,0.025642,3,9756465,0.39,0,0,0,-191934,-3853469,-8254479.479,0.016053,0.15041,0.024305,-478350.688,0,0,0,0,0,0
0,0,-0.354259,-0.008399,-0.089644,0.025642,3,9756475,0.4,0,0,0,-193073,-3848823,-8254479.479,0.015775,0.148158,0.024301,-474080.8073,0,0,0,0,0,0
0,0,-0.36144,-0.009927,-0.089797,0.025642,3,9756485,0.41,0,0,0,-194203,-3844219,-8254479.478,0.016012,0.146036,0.0243,-469849.0404,0,0,0,0,0,0
0,0,-0.371014,-0.004887,-0.090561,0.025642,3,9756495,0.42,0,0,0,-195327,-3839657,-8254479.477,0.016428,0.144365,0.024298,-465655.0471,0,0,0,0,0,0
0,0,-0.357849,-0.007636,-0.09163,0.025642,3,9756505,0.43,0,0,0,-196443,-3835136,-8254479.477,0.01597,0.142484,0.024289,-461498.4903,0,0,0,0,0,0
0,0,-0.351865,-0.007025,-0.091019,0.025642,3,9756515,0.44,0,0,0,-197553,-3830656,-8254479.476,0.015661,0.14069,0.024289,-457379.0357,0,0,0,0,0,0
0,0,-0.369817,-0.003818,-0.092546,0.025642,3,9756525,0.45,0,0,0,-198655,-3826217,-8254479.475,0.016323,0.139353,0.024286,-453296.3521,0,0,0,0,0,0
0,0,-0.36144,-0.007025,-0.089492,0.025642,3,9756535,0.46,0,0,0,-199750,-3821819,-8254479.475,0.016091,0.137808,0.024296,-449250.1115,0,0,0,0,0,0
0,0,-0.372211,-0.006567,-0.088728,0.025642,3,9756545,0.47,0,0,0,-200838,-3817460,-8254479.474,0.016478,0.136493,0.024306,-445239.9883,0,0,0,0,0,0
0,0,-0.368621,-0.005498,-0.087659,0.025642,3,9756555,0.48,0,0,0,-201919,-3813141,-8254479.474,0.016348,0.135095,0.024282,-441265.6604,0,0,0,0,0,0
0,0,-0.368621,-0.005498,-0.087659,0.025642,3,9756565,0.49,0,0,0,-202993,-3808861,-8254479.473,0.016375,0.133925,0.024305,-437326.8081,0,0,0,0,0,0
0,0,-0.357849,-0.007636,-0.090866,0.025642,3,9756575,0.5,0,0,0,-204060,-3804620,-8254479.472,0.015008,0.132351,0.024285,-433423.1147,0,0,0,0,0,0
0,0,-0.357849,-0.007636,-0.090866,0.025642,3,9756585,0.51,0,0,0,-205120,-3800417,-8254479.472,0.015739,0.131163,0.024294,-429554.2666,0,0,0,0,0,0
0,0,-0.369817,-0.004581,-0.091477,0.025642,3,9756595,0.52,0,0,0,-206173,-3796253,-8254479.471,0.016325,0.130281,0.024295,-425719.9525,0,0,0,0,0,0
0,0,-0.353062,-0.006414,-0.090255,0.025642,3,9756605,0.53,0,0,0,-207220,-3792126,-8254479.47,0.015753,0.12915,0.024296,-421919.8643,0,0,0,0,0,0
0,0,-0.348275,-0.006414,-0.088117,0.025642,3,9756615,0.54,0,0,0,-208260,-3788037,-8254479.47,0.015049,0.127932,0.024299,-418153.6964,0,0,0,0,0,0
0,0,-0.348275,-0.006414,-0.088117,0.025642,3,9756625,0.55,0,0,0,-209293,-3783985,-8254479.469,0.015364,0.126935,0.024312,-414421.1461,0,0,0,0,0,0
0,0,-0.36144,-0.003971,-0.091019,0.025642,3,9756635,0.56,0,0,0,-210319,-3779970,-8254479.469,0.015933,0.126233,0.024306,-410721.9133,0,0,0,0,0,0
0,0,-0.371014,-0.002596,-0.086437,0.025642,3,9756645,0.57,0,0,0,-211338,-3775991,-8254479.468,0.016398,0.125715,0.024325,-407055.7006,0,0,0,0,0,0
0,0,-0.3387,-0.006109,-0.089339,0.025642,3,9756655,0.58,0,0,0,-212351,-3772049,-8254479.467,0.015193,0.124682,0.024312,-403422.2132,0,0,0,0,0,0
0,0,-0.355456,-0.004887,-0.089339,0.025642,3,9756665,0.59,0,0,0,-213358,-3768142,-8254479.467,0.015667,0.123998,0.024313,-399821.159,0,0,0,0,0,0
0,0,-0.360243,-0.001374,-0.093768,0.025642,3,9756675,0.6,0,0,0,-214357,-3764271,-8254479.466,0.015932,0.123548,0.024293,-396252.2486,0,0,0,0,0,0
0,0,-0.357849,-0.005498,-0.087201,0.025642,3,9756685,0.61,0,0,0,-215351,-3760435,-8254479.465,0.015875,0.122886,0.024314,-392715.195,0,0,0,0,0,0
0,0,-0.367424,-0.009621,-0.092393,0.025642,3,9756695,0.62,0,0,0,-216338,-3756634,-8254479.465,0.016241,0.122151,0.024299,-389209.7139,0,0,0,0,0,0
0,0,-0.341094,-0.008247,-0.087812,0.025642,3,9756705,0.63,0,0,0,-217318,-3752867,-8254479.464,0.015258,0.121231,0.024309,-385735.5234,0,0,0,0,0,0
0,0,-0.342291,-0.005803,-0.09163,0.025642,3,9756715,0.64,0,0,0,-218292,-3749135,-8254479.464,0.015155,0.120536,0.0243,-382292.3441,0,0,0,0,0,0
0,0,-0.353062,-0.007941,-0.088575,0.025642,3,9756725,0.65,0,0,0,-219259,-3745436,-8254479.463,0.015561,0.119894,0.024312,-378879.8994,0,0,0,0,0,0
0,0,-0.341094,-0.00901,-0.092699,0.025642,3,9756735,0.66,0,0,0,-220221,-3741771,-8254479.462,0.015343,0.119352,0.024295,-375497.9149,0,0,0,0,0,0
57.687526,11.979802,-0.357849,-0.007941,-0.090103,0.025642,3,9756745,0.67,0,0,0,-221175,-3738140,-8254479.462,0.015117,0.118577,0.024288,-372146.1186,0,0,0,0,0,0
57.687526,11.979802,-0.33511,-0.00672,-0.091019,0.025642,3,9756755,0.68,0,0,0,-222124,-3734541,-8254479.461,0.015743,0.118087,0.024301,-368824.2412,0,0,0,0,0,0
57.687526,11.979802,-0.373408,-0.008552,-0.089644,0.025642,3,9756765,0.69,0,0,0,-223066,-3730975,-8254479.46,0.014943,0.117412,0.024297,-365532.0155,0,0,0,0,0,0
57.687526,11.979802,-0.356652,-0.007789,-0.093768,0.025642,3,9756775,0.7,0,0,0,-224003,-3727442,-8254479.46,0.016328,0.117126,0.02431,-362269.1768,0,0,0,0,0,0
57.687526,11.979802,-0.333913,-0.004887,-0.086896,0.025642,3,9756785,0.71,0,0,0,-224933,-3723941,-8254479.459,0.015882,0.116645,0.024289,-359035.4629,0,0,0,0,0,0
57.687526,11.979802,-0.356652,-0.006872,-0.089339,0.025642,3,9756795,0.72,0,0,0,-225856,-3720471,-8254479.459,0.014917,0.116121,0.024311,-355830.6138,0,0,0,0,0,0
57.687526,11.979802,-0.33511,-0.009621,-0.093462,0.025642,3,9756805,0.73,0,0,0,-226774,-3717033,-8254479.458,0.015663,0.11581,0.024316,-352654.3718,0,0,0,0,0,0
57.687526,11.979802,-0.326732,-0.002902,-0.094073,0.025642,3,9756815,0.74,0,0,0,-227686,-3713627,-8254479.457,0.014927,0.11511,0.024292,-349506.4815,0,0,0,0,0,0
57.687526,11.979802,-0.348275,-0.006261,-0.090713,0.025642,3,9756825,0.75,0,0,0,-228592,-3710251,-8254479.457,0.014487,0.114727,0.024281,-346386.69,0,0,0,0,0,0
57.687526,11.979802,-0.348275,-0.006261,-0.090713,0.025642,3,9756835,0.76,0,0,0,-229491,-3706906,-8254479.456,0.015266,0.114449,0.024297,-343294.7464,0,0,0,0,0,0
57.687526,11.979802,-0.366227,-0.004429,-0.092393,0.025642,3,9756845,0.77,0,0,0,-230385,-3703592,-8254479.455,0.014678,0.113999,0.024307,-340230.402,0,0,0,0,0,0
57.687526,11.979802,-0.337503,-0.004276,-0.091172,0.025642,3,9756855,0.78,0,0,0,-231273,-3700307,-8254479.455,0.016004,0.114029,0.024302,-337193.4106,0,0,0,0,0,0
57.687526,11.979802,-0.343487,-0.008705,-0.089034,0.025642,3,9756865,0.79,0,0,0,-232155,-3697053,-8254479.454,0.015076,0.1137,0.024297,-334183.528,0,0,0,0,0,0
57.687526,11.979802,-0.359046,-0.008247,-0.092699,0.025642,3,9756875,0.8,0,0,0,-233031,-3693828,-8254479.454,0.015165,0.113277,0.024309,-331200.5122,0,0,0,0,0,0
57.687526,11.979802,-0.373408,-0.006872,-0.092852,0,3,9756885,0.81,0,0,0,-233901,-3690632,-8254479.453,0.016296,0.109885,0.009869,-328244.1234,0,0,0,0,0,0
57.687526,11.979802,-0.36503,-0.006261,-0.089186,0,3,9756895,0.82,0,0,0,-234766,-3687465,-8254479.453,0.017231,0.106878,0.003732,-325314.124,0,0,0,0,0,0
57.687526,11.979802,-0.343487,-0.010996,-0.092699,0,3,9756905,0.83,0,0,0,-235623,-3684327,-8254479.453,0.017125,0.103946,0.001139,-322410.2783,0,0,0,0,0,0
57.687526,11.979802,-0.33511,-0.00504,-0.092546,0,3,9756915,0.84,0,0,0,-236474,-3681217,-8254479.453,0.016288,0.100712,0.000017,-319532.3528,0,0,0,0,0,0
57.687526,11.979802,-0.33511,-0.006872,-0.089644,0,3,9756925,0.85,0,0,0,-237316,-3678135,-8254479.453,0.015844,0.097897,-0.000456,-316680.1164,0,0,0,0,0,0
57.687526,11.979802,-0.368621,-0.005803,-0.092088,0,3,9756935,0.86,0,0,0,-238151,-3675080,-8254479.453,0.015778,0.095163,-0.000641,-313853.3395,0,0,0,0,0,0
57.687526,11.979802,-0.355456,-0.009316,-0.094073,0,3,9756945,0.87,0,0,0,-238979,-3672053,-8254479.453,0.017091,0.09298,-0.000726,-311051.7951,0,0,0,0,0,0
57.687526,11.979802,-0.367424,-0.008705,-0.091324,0,3,9756955,0.88,0,0,0,-239799,-3669053,-8254479.453,0.016772,0.090533,-0.000777,-308275.2578,0,0,0,0,0,0
57.687526,11.979802,-0.367424,-0.003971,-0.088423,0,3,9756965,0.89,0,0,0,-240612,-3666079,-8254479.453,0.017193,0.088388,-0.000783,-305523.5044,0,0,0,0,0,0
57.687526,11.979802,-0.367424,-0.003971,-0.088423,0,3,9756975,0.9,0,0,0,-241418,-3663132,-8254479.453,0.017259,0.086574,-0.000771,-302796.3137,0,0,0,0,0,0
57.687526,11.979802,-0.356652,-0.009927,-0.091172,0,3,9756985,0.91,0,0,0,-242216,-3660211,-8254479.453,0.016839,0.084438,-0.000782,-300093.4665,0,0,0,0,0,0
57.687526,11.979802,-0.343487,-0.005345,-0.091172,0,3,9756995,0.92,0,0,0,-243007,-3657316,-8254479.453,0.016255,0.082522,-0.000786,-297414.7454,0,0,0,0,0,0
57.687526,11.979802,-0.344684,-0.009316,-0.093004,0,3,9757005,0.93,0,0,0,-243791,-3654447,-8254479.453,0.016209,0.080546,-0.000795,-294759.9351,0,0,0,0,0,0
57.687526,11.979802,-0.362636,-0.00901,-0.088117,0,3,9757015,0.94,0,0,0,-244568,-3651604,-8254479.453,0.016907,0.078885,-0.000772,-292128.8222,0,0,0,0,0,0
57.687526,11.979802,-0.353062,-0.006109,-0.090561,0,3,9757025,0.95,0,0,0,-245338,-3648786,-8254479.453,0.016638,0.077319,-0.000777,-289521.1951,0,0,0,0,0,0
57.687526,11.979802,-0.367424,-0.004887,-0.089644,0,3,9757035,0.96,0,0,0,-246101,-3645993,-8254479.453,0.017162,0.07606,-0.000771,-286936.8443,0,0,0,0,0,0
57.687526,11.979802,-0.33511,-0.006109,-0.091172,0,3,9757045,0.97,0,0,0,-246857,-3643225,-8254479.453,0.015967,0.074438,-0.000782,-284375.5618,0,0,0,0,0,0
57.687526,11.979802,-0.356652,-0.003207,-0.094226,0,3,9757055,0.98,0,0,0,-247607,-3640482,-8254479.453,0.016633,0.073326,-0.000794,-281837.1419,0,0,0,0,0,0
57.687526,11.979802,-0.347078,-0.006872,-0.090866,0,3,9757065,0.99,0,0,0,-248349,-3637763,-8254479.453,0.016354,0.07196,-0.000787,-279321.3804,0,0,0,0,0,0
57.687526,11.979802,-0.353062,-0.003054,-0.091324,0,3,9757075,1,0,0,0,-249085,-3635069,-8254479.453,0.016548,0.070932,-0.000783,-276828.0751,0,0,0,0,0,0
57.687526,11.979802,-0.360243,-0.003818,-0.092241,0,3,9757085,1.01,0,0,0,-249815,-3632398,-8254479.453,0.01686,0.069984,-0.000785,-274357.0256,0,0,0,0,0,0
57.687526,11.979802,-0.356652,-0.006872,-0.091019,0,3,9757095,1.02,0,0,0,-250537,-3629751,-8254479.453,0.016764,0.068883,-0.000782,-271908.0331,0,0,0,0,0,0
57.687526,11.979802,-0.359046,-0.007025,-0.08995,0,3,9757105,1.03,0,0,0,-251254,-3627128,-8254479.453,0.016842,0.067862,-0.000775,-269480.9009,0,0,0,0,0,0
57.687526,11.979802,-0.372211,-0.005803,-0.089339,0,3,9757115,1.04,0,0,0,-251963,-3624529,-8254479.453,0.017373,0.067092,-0.000767,-267075.4337,0,0,0,0,0,0
57.687526,11.979802,-0.348275,-0.00733,-0.08827,0,3,9757125,1.05,0,0,0,-252667,-3621952,-8254479.453,0.016509,0.066008,-0.000764,-264691.4382,0,0,0,0,0,0
57.687526,11.979802,-0.351865,-0.005345,-0.095142,0,3,9757135,1.06,0,0,0,-253364,-3619399,-8254479.453,0.016519,0.065151,-0.000791,-262328.7227,0,0,0,0,0,0
57.687526,11.979802,-0.349471,-0.007483,-0.092088,0,3,9757145,1.07,0,0,0,-254055,-3616868,-8254479.453,0.016423,0.06421,-0.000789,-259987.0973,0,0,0,0,0,0
57.687526,11.979802,-0.354259,-0.003207,-0.091324,0,3,9757155,1.08,0,0,0,-254739,-3614360,-8254479.453,0.016599,0.063587,-0.000783,-257666.3736,0,0,0,0,0,0
57.687526,11.979802,-0.3387,-0.00733,-0.093157,0,3,9757165,1.09,0,0,0,-255418,-3611874,-8254479.453,0.01601,0.062616,-0.000792,-255366.3653,0,0,0,0,0,0
57.687526,11.979802,-0.36503,-0.004887,-0.086743,0,3,9757175,1.1,0,0,0,-256090,-3609411,-8254479.453,0.016957,0.06213,-0.000759,-253086.8873,0,0,0,0,0,0
57.687526,11.979802,-0.357849,-0.004276,-0.090561,0,3,9757185,1.11,0,0,0,-256756,-3606969,-8254479.453,0.01682,0.061576,-0.000767,-250827.7563,0,0,0,0,0,0
57.687526,11.979802,-0.350668,-0.004123,-0.086285,0,3,9757195,1.12,0,0,0,-257417,-3604549,-8254479.453,0.016515,0.060992,-0.000751,-248588.7908,0,0,0,0,0,0
57.687526,11.979802,-0.348275,-0.006567,-0.092546,0,3,9757205,1.13,0,0,0,-258071,-3602151,-8254479.453,0.016372,0.0603,-0.000773,-246369.8108,0,0,0,0,0,0
57.687526,11.979802,-0.359046,-0.008094,-0.096822,0,3,9757215,1.14,0,0,0,-258719,-3599774,-8254479.453,0.016774,0.059684,-0.000801,-244170.6378,0,0,0,0,0,0
57.687526,11.979802,-0.344684,-0.004581,-0.091324,0,3,9757225,1.15,0,0,0,-259362,-3597419,-8254479.453,0.016271,0.05911,-0.00079,-241991.0951,0,0,0,0,0,0
57.687526,11.979802,-0.366227,-0.008247,-0.090103,0,3,9757235,1.16,0,0,0,-259999,-3595084,-8254479.453,0.01704,0.058637,-0.000775,-239831.0074,0,0,0,0,0,0
57.687526,11.979802,-0.367424,-0.006872,-0.091935,0,3,9757245,1.17,0,0,0,-260630,-3592770,-8254479.453,0.017206,0.058231,-0.000779,-237690.201,0,0,0,0,0,0
57.687526,11.979802,-0.367424,-0.005956,-0.091783,0,3,9757255,1.18,0,0,0,-261255,-3590477,-8254479.453,0.017232,0.057884,-0.00078,-235568.504,0,0,0,0,0,0
57.687526,11.979802,-0.339897,-0.004276,-0.089186,0,3,9757265,1.19,0,0,0,-261875,-3588204,-8254479.453,0.016151,0.057349,-0.000773,-233465.7456,0,0,0,0,0,0
57.687526,11.979802,-0.371014,-0.006567,-0.090408,0,3,9757275,1.2,0,0,0,-262489,-3585952,-8254479.453,0.017209,0.057106,-0.000767,-231381.7569,0,0,0,0,0,0
57.687526,11.979802,-0.344684,-0.003512,-0.088575,0,3,9757285,1.21,0,0,0,-263098,-3583720,-8254479.453,0.016336,0.056702,-0.000763,-229316.3703,0,0,0,0,0,0
57.687526,11.979802,-0.36144,-0.005803,-0.089034,0,3,9757295,1.22,0,0,0,-263701,-3581507,-8254479.453,0.01686,0.056423,-0.000758,-227269.4197,0,0,0,0,0,0
57.687526,11.979802,-0.339897,-0.008705,-0.085521,0,3,9757305,1.23,0,0,0,-264299,-3579315,-8254479.453,0.016088,0.055765,-0.000745,-225240.7407,0,0,0,0,0,0
57.687526,11.979802,-0.36144,-0.001374,-0.08659,0,3,9757315,1.24,0,0,0,-264891,-3577141,-8254479.453,0.016823,0.055769,-0.000737,-223230.17,0,0,0,0,0,0
57.687526,11.979802,-0.353062,-0.001527,-0.090866,0,3,9757325,1.25,0,0,0,-265478,-3574988,-8254479.453,0.016606,0.055638,-0.000758,-221237.5461,0,0,0,0,0,0
57.687526,11.979802,-0.319551,-0.005192,-0.085521,0,3,9757335,1.26,0,0,0,-266060,-3572853,-8254479.453,0.015248,0.054992,-0.000746,-219262.7087,0,0,0,0,0,0
57.687526,11.979802,-0.348275,-0.004734,-0.09163,0,3,9757345,1.27,0,0,0,-266637,-3570738,-8254479.453,0.016171,0.054764,-0.000761,-217305.4991,0,0,0,0,0,0
57.687526,11.979802,-0.345881,-0.002749,-0.08659,0,3,9757355,1.28,0,0,0,-267208,-3568641,-8254479.453,0.01622,0.054584,-0.000747,-215365.76,0,0,0,0,0,0
57.687526,11.979802,-0.357849,-0.007941,-0.086285,0,3,9757365,1.29,0,0,0,-267774,-3566563,-8254479.453,0.016696,0.054279,-0.000738,-213443.3354,0,0,0,0,0,0
57.687526,11.979802,-0.348275,-0.001374,-0.08995,0,3,9757375,1.3,0,0,0,-268336,-3564504,-8254479.453,0.015497,0.053782,-0.000754,-211538.0707,0,0,0,0,0,0
57.687526,11.979802,-0.348275,-0.001374,-0.08995,0,3,9757385,1.31,0,0,0,-268892,-3562463,-8254479.453,0.016211,0.053774,-0.000757,-209649.8128,0,0,0,0,0,0
57.687526,11.979802,-0.378195,-0.00672,-0.092699,0,3,9757395,1.32,0,0,0,-269443,-3560440,-8254479.453,0.017593,0.053864,-0.00075,-207778.4099,0,0,0,0,0,0
57.687526,11.979802,-0.378195,-0.00672,-0.092699,0,3,9757405,1.33,0,0,0,-269989,-3558435,-8254479.453,0.017713,0.053801,-0.000771,-205923.7114,0,0,0,0,0,0
57.687526,11.979802,-0.359046,-0.007941,-0.090103,0,3,9757415,1.34,0,0,0,-270530,-3556449,-8254479.454,0.016975,0.053475,-0.000771,-204085.5684,0,0,0,0,0,0
57.687526,11.979802,-0.36144,-0.006567,-0.087965,0,3,9757425,1.35,0,0,0,-271066,-3554480,-8254479.454,0.016955,0.053297,-0.000758,-202263.8331,0,0,0,0,0,0
57.687526,11.979802,-0.356652,-0.007483,-0.090408,0,3,9757435,1.36,0,0,0,-271598,-3552528,-8254479.454,0.016763,0.05303,-0.000765,-200458.3588,0,0,0,0,0,0
57.687526,11.979802,-0.353062,-0.005345,-0.09163,0,3,9757445,1.37,0,0,0,-272125,-3550594,-8254479.454,0.016593,0.052853,-0.000773,-198669.0007,0,0,0,0,0,0
57.687526,11.979802,-0.351865,-0.008399,-0.09331,0,3,9757455,1.38,0,0,0,-272647,-3548677,-8254479.454,0.016517,0.052527,-0.000785,-196895.6147,0,0,0,0,0,0
57.687526,11.979802,-0.347078,-0.006872,-0.09163,0,3,9757465,1.39,0,0,0,-273164,-3546777,-8254479.454,0.016317,0.052249,-0.000782,-195138.0582,0,0,0,0,0,0
57.687526,11.979802,-0.356652,-0.004276,-0.088117,0,3,9757475,1.4,0,0,0,-273677,-3544894,-8254479.454,0.016665,0.052229,-0.000762,-193396.1901,0,0,0,0,0,0
57.687526,11.979802,-0.371014,-0.005498,-0.088575,0,3,9757485,1.41,0,0,0,-274185,-3543028,-8254479.454,0.017284,0.052284,-0.000754,-191669.8703,0,0,0,0,0,0
57.687526,11.979802,-0.344684,-0.004429,-0.089797,0,3,9757495,1.42,0,0,0,-274688,-3541179,-8254479.454,0.016342,0.05208,-0.000763,-189958.9599,0,0,0,0,0,0
57.687526,11.979802,-0.36503,-0.008552,-0.091172,0,3,9757505,1.43,0,0,0,-275187,-3539346,-8254479.454,0.016997,0.05194,-0.000767,-188263.3215,0,0,0,0,0,0
57.687526,11.979802,-0.36503,-0.007178,-0.092699,0,3,9757515,1.44,0,0,0,-275681,-3537529,-8254479.454,0.017099,0.051843,-0.000778,-186582.8186,0,0,0,0,0,0
57.687526,11.979802,-0.362636,-0.005192,-0.090255,0,3,9757525,1.45,0,0,0,-276171,-3535729,-8254479.454,0.017021,0.051823,-0.000772,-184917.3163,0,0,0,0,0,0
57.687526,11.979802,-0.342291,-0.004734,-0.087812,0,3,9757535,1.46,0,0,0,-276657,-3533945,-8254479.454,0.016206,0.051617,-0.00076,-183266.6806,0,0,0,0,0,0
57.687526,11.979802,-0.348275,-0.004581,-0.090103,0,3,9757545,1.47,0,0,0,-277138,-3532176,-8254479.454,0.016317,0.051529,-0.000763,-181630.7787,0,0,0,0,0,0
57.687526,11.979802,-0.353062,-0.009774,-0.092393,0,3,9757555,1.48,0,0,0,-277615,-3530424,-8254479.454,0.01652,0.05123,-0.000775,-180009.4793,0,0,0,0,0,0
57.687526,11.979802,-0.345881,-0.004887,-0.090103,0,3,9757565,1.49,0,0,0,-278088,-3528687,-8254479.454,0.01627,0.051107,-0.00077,-178402.6519,0,0,0,0,0,0
57.687526,11.979802,-0.341094,-0.005803,-0.092546,0,3,9757575,1.5,0,0,0,-278556,-3526965,-8254479.454,0.016042,0.050903,-0.00078,-176810.1674,0,0,0,0,0,0
57.687526,11.979802,-0.379392,-0.00504,-0.092699,0,3,9757585,1.51,0,0,0,-279020,-3525259,-8254479.454,0.017519,0.051164,-0.000778,-175231.8977,0,0,0,0,0,0
57.687526,11.979802,-0.339897,-0.008552,-0.091783,0,3,9757595,1.52,0,0,0,-279480,-3523568,-8254479.454,0.016423,0.050876,-0.000774,-173667.7159,0,0,0,0,0,0
57.687526,11.979802,-0.339897,-0.008552,-0.091783,0,3,9757605,1.53,0,0,0,-279936,-3521893,-8254479.454,0.016017,0.050528,-0.000779,-172117.4964,0,0,0,0,0,0
57.687526,11.979802,-0.345881,-0.009927,-0.092241,0,3,9757615,1.54,0,0,0,-280388,-3520232,-8254479.454,0.016189,0.050212,-0.000781,-170581.1144,0,0,0,0,0,0
57.687526,11.979802,-0.356652,-0.003512,-0.093462,0,3,9757625,1.55,0,0,0,-280835,-3518586,-8254479.454,0.016645,0.050337,-0.000786,-169058.4465,0,0,0,0,0,0
57.687526,11.979802,-0.36503,-0.004581,-0.092088,0,3,9757635,1.56,0,0,0,-281279,-3516954,-8254479.454,0.017045,0.05047,-0.000781,-167549.3702,0,0,0,0,0,0
57.687526,11.979802,-0.369817,-0.004429,-0.08995,0,3,9757645,1.57,0,0,0,-281719,-3515338,-8254479.454,0.017296,0.050638,-0.00077,-166053.7642,0,0,0,0,0,0
57.687526,11.979802,-0.371014,-0.006109,-0.092393,0,3,9757655,1.58,0,0,0,-282154,-3513735,-8254479.454,0.017381,0.050712,-0.000778,-164571.5084,0,0,0,0,0,0
57.687526,11.979802,-0.332716,-0.006567,-0.089034,0,3,9757665,1.59,0,0,0,-282586,-3512147,-8254479.454,0.015882,0.050353,-0.000771,-163102.4834,0,0,0,0,0,0
57.687526,11.979802,-0.3387,-0.007025,-0.087201,0,3,9757675,1.6,0,0,0,-283014,-3510573,-8254479.454,0.015886,0.050126,-0.000754,-161646.5712,0,0,0,0,0,0
57.687526,11.979802,-0.337503,-0.007789,-0.088881,0,3,9757685,1.61,0,0,0,-283438,-3509013,-8254479.454,0.015838,0.049859,-0.000755,-160203.6548,0,0,0,0,0,0
57.687526,11.979802,-0.353062,-0.00733,-0.093615,0,3,9757695,1.62,0,0,0,-283858,-3507468,-8254479.454,0.016446,0.04979,-0.000775,-158773.6182,0,0,0,0,0,0
57.687526,11.979802,-0.33511,-0.004429,-0.092546,0,3,9757705,1.63,0,0,0,-284274,-3505935,-8254479.454,0.015833,0.049651,-0.000783,-157356.3463,0,0,0,0,0,0
57.687526,11.979802,-0.357849,-0.003512,-0.086132,0,3,9757715,1.64,0,0,0,-284687,-3504417,-8254479.454,0.016395,0.049396,-0.000766,-155951.7253,0,0,0,0,0,0
57.687526,11.979802,-0.357849,-0.003512,-0.086132,0,3,9757725,1.65,0,0,0,-285096,-3502912,-8254479.454,0.016722,0.049573,-0.000745,-154559.6422,0,0,0,0,0,0
57.687526,11.979802,-0.323141,-0.005803,-0.092241,0,3,9757735,1.66,0,0,0,-285501,-3501420,-8254479.454,0.016488,0.049476,-0.000768,-153179.9852,0,0,0,0,0,0
57.687527,11.979803,-0.350668,-0.007636,-0.090103,0,3,9757745,1.67,22,22,22,46360,-1287136,-4817615.8,0.015366,0.049157,-0.000781,-599174.1605,0,0,0,0,0,0
57.687527,11.979803,-0.356652,-0.010232,-0.089797,0,3,9757755,1.68,22,22,22,50420,-1282730,-4817615.8,0.016277,0.04911,-0.000768,-593825.7853,0,0,0,0,0,0
57.687527,11.979803,-0.347078,-0.000764,-0.089492,0,3,9757765,1.69,22,22,22,54445,-1278364,-4817615.8,0.016652,0.048957,-0.000764,-588525.1508,0,0,0,0,0,0
57.687527,11.979803,-0.347078,-0.000764,-0.089492,0,3,9757775,1.7,22,22,22,58434,-1274036,-4817615.8,0.016338,0.049165,-0.000762,-583271.8308,0,0,0,0,0,0
57.687527,11.979803,-0.347078,-0.007178,-0.090103,0,3,9757785,1.71,22,22,22,62387,-1269748,-4817615.8,0.01657,0.04924,-0.000755,-578065.403,0,0,0,0,0,0
57.687527,11.979803,-0.347078,-0.007178,-0.090103,0,3,9757795,1.72,22,22,22,66305,-1265498,-4817615.8,0.016322,0.049117,-0.000762,-572905.4489,0,0,0,0,0,0
57.687527,11.979803,-0.344684,-0.002902,-0.085979,0,3,9757805,1.73,22,22,22,70189,-1261285,-4817615.8,0.01666,0.048983,-0.000768,-567791.5535,0,0,0,0,0,0
57.687527,11.979803,-0.362636,-0.008247,-0.089186,0,3,9757815,1.74,22,22,22,74037,-1257111,-4817615.8,0.016243,0.04906,-0.000747,-562723.3057,0,0,0,0,0,0
57.687527,11.979803,-0.359046,-0.003665,-0.090866,0,3,9757825,1.75,22,22,22,77852,-1252974,-4817615.8,0.016884,0.049074,-0.000751,-557700.2982,0,0,0,0,0,0
57.687527,11.979803,-0.362636,-0.010843,-0.090408,0,3,9757835,1.76,22,22,22,81632,-1248873,-4817615.8,0.016845,0.049245,-0.000762,-552722.127,0,0,0,0,0,0
57.687527,11.979803,-0.36144,-0.003971,-0.089492,0,3,9757845,1.77,22,22,22,85379,-1244810,-4817615.8,0.016976,0.049091,-0.000765,-547788.392,0,0,0,0,0,0
57.687527,11.979803,-0.347078,-0.007178,-0.098349,0,3,9757855,1.78,22,22,22,89092,-1240783,-4817615.8,0.016953,0.049268,-0.000762,-542898.6964,0,0,0,0,0,0
57.687527,11.979803,-0.357849,-0.007483,-0.088728,0,3,9757865,1.79,22,22,22,92772,-1236792,-4817615.8,0.016382,0.049117,-0.000805,-538052.6473,0,0,0,0,0,0
57.687527,11.979803,-0.36144,-0.004734,-0.094226,0,3,9757875,1.8,22,22,22,96420,-1232836,-4817615.8,0.016718,0.049109,-0.000774,-533249.855,0,0,0,0,0,0
57.687527,11.979803,-0.354259,-0.002596,-0.08827,0,3,9757885,1.81,22,22,22,100035,-1228916,-4817615.8,0.016914,0.049255,-0.000787,-528489.9334,0,0,0,0,0,0
57.687527,11.979803,-0.354259,-0.002596,-0.08827,0,3,9757895,1.82,22,22,22,103618,-1225031,-4817615.8,0.016661,0.049421,-0.000766,-523772.4997,0,0,0,0,0,0
57.687527,11.979803,-0.350668,-0.003054,-0.089797,0,3,9757905,1.83,22,22,22,107169,-1221181,-4817615.801,0.016714,0.04941,-0.000756,-519097.1749,0,0,0,0,0,0
57.687527,11.979803,-0.372211,0.001985,-0.089492,0,3,9757915,1.84,22,22,22,110688,-1217365,-4817615.801,0.016488,0.049515,-0.00076,-514463.5829,0,0,0,0,0,0
57.687527,11.979803,-0.372211,0.001985,-0.089492,0,3,9757925,1.85,22,22,22,114176,-1213583,-4817615.801,0.017307,0.050104,-0.000755,-509871.3513,0,0,0,0,0,0
57.687527,11.979803,-0.356652,-0.005192,-0.092241,0,3,9757935,1.86,22,22,22,117633,-1209835,-4817615.801,0.016816,0.050098,-0.000773,-505320.1108,0,0,0,0,0,0
57.687527,11.979803,-0.357849,-0.007636,-0.091935,0,3,9757945,1.87,22,22,22,121059,-1206121,-4817615.801,0.016786,0.050008,-0.000777,-500809.4957,0,0,0,0,0,0
57.687527,11.979803,-0.347078,-0.005651,-0.086743,0,3,9757955,1.88,22,22,22,124454,-1202440,-4817615.801,0.016357,0.049914,-0.000756,-496339.1432,0,0,0,0,0,0
57.687527,11.979803,-0.337503,-0.004429,-0.087354,0,3,9757965,1.89,22,22,22,127820,-1198792,-4817615.801,0.015913,0.049804,-0.000749,-491908.694,0,0,0,0,0,0
57.687527,11.979803,-0.362636,-0.007025,-0.089492,0,3,9757975,1.9,22,22,22,131155,-1195176,-4817615.801,0.016834,0.049856,-0.000752,-487517.7918,0,0,0,0,0,0
57.687527,11.979803,-0.373408,-0.006261,-0.088881,0,3,9757985,1.91,22,22,22,134461,-1191593,-4817615.801,0.017402,0.050013,-0.000751,-483166.0837,0,0,0,0,0,0
57.687527,11.979803,-0.36144,-0.007025,-0.091172,0,3,9757995,1.92,22,22,22,137737,-1188041,-4817615.801,0.017018,0.049969,-0.000766,-478853.2198,0,0,0,0,0,0
57.687527,11.979803,-0.371014,-0.003512,-0.089492,0,3,9758005,1.93,22,22,22,140984,-1184522,-4817615.801,0.017338,0.050223,-0.000761,-474578.8534,0,0,0,0,0,0
57.687527,11.979803,-0.360243,-0.004429,-0.093921,0,3,9758015,1.94,22,22,22,144203,-1181034,-4817615.801,0.016963,0.050284,-0.000783,-470342.6409,0,0,0,0,0,0
57.687527,11.979803,-0.380589,-0.007025,-0.090713,0,3,9758025,1.95,22,22,22,147392,-1177577,-4817615.801,0.017144,0.050642,-0.000764,-466144.2416,0,0,0,0,0,0
57.687527,11.979803,-0.380589,-0.007025,-0.090713,0,3,9758035,1.96,22,22,22,150553,-1174151,-4817615.801,0.017734,0.05078,-0.000765,-461983.3181,0,0,0,0,0,0
57.687527,11.979803,-0.356652,-0.008247,-0.087659,0,3,9758045,1.97,22,22,22,153686,-1170756,-4817615.801,0.01688,0.050572,-0.000757,-457859.5359,0,0,0,0,0,0
57.687527,11.979803,-0.360243,-0.011301,-0.089492,0,3,9758055,1.98,22,22,22,156791,-1167391,-4817615.801,0.016888,0.0503,-0.00076,-453772.5633,0,0,0,0,0,0
57.687527,11.979803,-0.368621,-0.004581,-0.094684,0,3,9758066,1.991,22,22,22,159869,-1164057,-4817615.801,0.01727,0.050376,-0.000766,-449722.0719,0,0,0,0,0,0
57.687527,11.979803,-0.368621,-0.004581,-0.094684,0,3,9758075,2,22,22,22,162919,-1160752,-4817615.801,0.020954,0.050139,-0.001018,-445707.7359,-0.061093,0,0,0,0.464355,-0.061093
57.687527,11.979803,-0.356652,-0.006414,-0.091783,0,3,9758085,2.01,22,22,22,165941,-1157476,-4817615.801,0.021272,0.049504,-0.001139,-441729.2327,-0.060776,0,0,0,0.464539,-0.060776
57.687527,11.979803,-0.373408,-0.004429,-0.088423,0,3,9758095,2.02,22,22,22,168937,-1154230,-4817615.801,0.021964,0.049169,-0.001171,-437786.2425,-0.061133,0,0,0,0.464331,-0.061133
57.687527,11.979803,-0.375801,-0.006872,-0.088117,0,3,9758105,2.03,22,22,22,171907,-1151013,-4817615.801,0.022187,0.04872,-0.001187,-433878.4482,-0.060907,0,0,0,0.464463,-0.060907
57.687527,11.979803,-0.343487,-0.008399,-0.086437,0,3,9758115,2.04,22,22,22,174850,-1147825,-4817615.801,0.020931,0.04787,-0.00119,-430005.5356,-0.0588,0,0,0,0.465692,-0.0588
57.687527,11.979803,-0.350668,-0.005498,-0.09163,0,3,9758125,2.05,22,22,22,177766,-1144666,-4817615.801,0.020888,0.047351,-0.001202,-426167.1934,-0.058239,0,0,0,0.46602,-0.058239
57.687527,11.979803,-0.341094,-0.007941,-0.090561,0,3,9758135,2.06,22,22,22,180657,-1141534,-4817615.801,0.020465,0.046644,-0.001202,-422363.113,-0.05711,0,0,0,0.466679,-0.05711
57.687527,11.979803,-0.351865,-0.006261,-0.093004,0,3,9758145,2.07,22,22,22,183522,-1138431,-4817615.801,0.020754,0.046196,-0.001205,-418592.9886,-0.05695,0,0,0,0.466772,-0.05695
57.687527,11.979803,-0.362636,-0.00336,-0.087965,0,3,9758155,2.08,22,22,22,186362,-1135356,-4817615.801,0.021214,0.046022,-0.001181,-414856.5171,-0.057236,0,0,0,0.466605,-0.057236
57.687527,11.979803,-0.357849,-0.002749,-0.090561,0,3,9758165,2.09,22,22,22,189176,-1132308,-4817615.801,0.021115,0.045811,-0.001186,-411153.3981,-0.056926,0,0,0,0.466786,-0.056926
57.687527,11.979803,-0.325535,-0.003512,-0.092088,0,3,9758175,2.1,22,22,22,191965,-1129287,-4817615.801,0.019805,0.045236,-0.001199,-407483.3338,-0.055041,0,0,0,0.467886,-0.055041
57.687527,11.979803,-0.366227,-0.006567,-0.089492,0,3,9758185,2.11,22,22,22,194730,-1126293,-4817615.801,0.021085,0.045046,-0.001174,-403846.0293,-0.056131,0,0,0,0.46725,-0.056131
57.687527,11.979803,-0.326732,-0.004734,-0.090408,0,3,9758195,2.12,22,22,22,197470,-1123326,-4817615.801,0.019795,0.044471,-0.001183,-400241.1921,-0.054266,0,0,0,0.468338,-0.054266
57.687527,11.979803,-0.321945,-0.008247,-0.092699,0,3,9758205,2.13,22,22,22,200185,-1120386,-4817615.801,0.019285,0.043771,-0.001186,-396668.5324,-0.053056,0,0,0,0.469044,-0.053056
57.687527,11.979803,-0.382982,-0.004276,-0.088575,0,3,9758215,2.14,22,22,22,202877,-1117472,-4817615.801,0.021539,0.043987,-0.001152,-393127.763,-0.055526,0,0,0,0.467603,-0.055526
57.687527,11.979803,-0.36144,-0.004734,-0.090561,0,3,9758225,2.15,22,22,22,205544,-1114584,-4817615.801,0.021194,0.043817,-0.001167,-389618.5992,-0.055011,0,0,0,0.467903,-0.055011
57.687527,11.979803,-0.374605,-0.003971,-0.084758,0,3,9758235,2.16,22,22,22,208188,-1111723,-4817615.801,0.021627,0.043858,-0.001141,-386140.7588,-0.055486,0,0,0,0.467626,-0.055486
57.687527,11.979803,-0.363833,-0.002596,-0.090408,0,3,9758245,2.17,22,22,22,210808,-1108886,-4817615.801,0.021301,0.043822,-0.001161,-382693.9624,-0.055124,0,0,0,0.467838,-0.055124
57.687527,11.979803,-0.351865,-0.003512,-0.091783,0,3,9758255,2.18,22,22,22,213405,-1106075,-4817615.801,0.020755,0.043633,-0.001176,-379277.9328,-0.054388,0,0,0,0.468267,-0.054388
57.687527,11.979803,-0.347078,-0.002443,-0.088728,0,3,9758265,2.19,22,22,22,215979,-1103289,-4817615.801,0.020435,0.043489,-0.001163,-375892.3953,-0.053924,0,0,0,0.468537,-0.053924
57.687527,11.979803,-0.36503,-0.004581,-0.089644,0,3,9758275,2.2,22,22,22,218530,-1100529,-4817615.801,0.021063,0.043454,-0.001157,-372537.0778,-0.054517,0,0,0,0.468192,-0.054517
57.687527,11.979803,-0.379392,-0.005651,-0.092546,0,3,9758285,2.21,22,22,22,221058,-1097792,-4817615.801,0.021764,0.043482,-0.001171,-369211.7106,-0.055246,0,0,0,0.467766,-0.055246
57.687527,11.979803,-0.357849,-0.005192,-0.091324,0,3,9758295,2.22,22,22,22,223564,-1095081,-4817615.802,0.021069,0.043268,-0.001179,-365916.0263,-0.054337,0,0,0,0.468296,-0.054337
57.687527,11.979803,-0.349471,-0.001985,-0.088575,0,3,9758305,2.23,22,22,22,226047,-1092393,-4817615.802,0.020575,0.043177,-0.001164,-362649.7598,-0.053752,0,0,0,0.468638,-0.053752
57.687527,11.979803,-0.360243,-0.00504,-0.088881,0,3,9758315,2.24,22,22,22,228509,-1089730,-4817615.802,0.020884,0.04308,-0.001154,-359412.6488,-0.053964,0,0,0,0.468514,-0.053964
57.687527,11.979803,-0.341094,-0.001985,-0.090713,0,3,9758325,2.25,22,22,22,230948,-1087091,-4817615.802,0.020192,0.042919,-0.001163,-356204.4328,-0.053111,0,0,0,0.469012,-0.053111
57.687527,11.979803,-0.339897,-0.00672,-0.088117,0,3,9758335,2.26,22,22,22,233366,-1084475,-4817615.802,0.01998,0.042559,-0.00115,-353024.854,-0.052539,0,0,0,0.469346,-0.052539
57.687527,11.979803,-0.349471,-0.004581,-0.089034,0,3,9758345,2.27,22,22,22,235762,-1081883,-4817615.802,0.020289,0.042438,-0.001144,-349873.6568,-0.052728,0,0,0,0.469235,-0.052728
57.687527,11.979803,-0.33511,-0.003818,-0.087812,0,3,9758355,2.28,22,22,22,238137,-1079313,-4817615.802,0.019783,0.042196,-0.001139,-346750.5878,-0.051978,0,0,0,0.469673,-0.051978
57.687527,11.979803,-0.381786,-0.004429,-0.091935,0,3,9758365,2.29,22,22,22,240491,-1076767,-4817615.802,0.021498,0.042453,-0.001145,-343655.3959,-0.053952,0,0,0,0.468521,-0.053952
57.687527,11.979803,-0.355456,-0.005192,-0.090408,0,3,9758375,2.3,22,22,22,242824,-1074244,-4817615.802,0.02085,0.042289,-0.001158,-340587.8323,-0.053139,0,0,0,0.468995,-0.053139
57.687527,11.979803,-0.355456,-0.005192,-0.087659,0,3,9758385,2.31,22,22,22,245136,-1071743,-4817615.802,0.020698,0.042172,-0.001145,-337547.6504,-0.052869,0,0,0,0.469153,-0.052869
57.687527,11.979803,-0.36503,-0.003971,-0.085063,0,3,9758395,2.32,22,22,22,247428,-1069265,-4817615.802,0.021035,0.042235,-0.001124,-334534.6058,-0.053269,0,0,0,0.468919,-0.053269
57.687527,11.979803,-0.36503,-0.003207,-0.090103,0,3,9758405,2.33,22,22,22,249699,-1066808,-4817615.802,0.021113,0.042308,-0.001141,-331548.4563,-0.053422,0,0,0,0.468831,-0.053422
57.687527,11.979803,-0.36144,-0.007941,-0.090713,0,3,9758415,2.34,22,22,22,251950,-1064374,-4817615.802,0.020991,0.042099,-0.001154,-328588.9616,-0.05309,0,0,0,0.469024,-0.05309
57.687527,11.979803,-0.339897,-0.00336,-0.092241,0,3,9758425,2.35,22,22,22,254181,-1061962,-4817615.802,0.020104,0.041907,-0.001167,-325655.8841,-0.052011,0,0,0,0.469653,-0.052011
57.687527,11.979803,-0.341094,-0.003207,-0.087201,0,3,9758435,2.36,22,22,22,256392,-1059571,-4817615.802,0.019945,0.0418,-0.001142,-322748.9877,-0.051745,0,0,0,0.469809,-0.051745
57.687527,11.979803,-0.339897,-0.006261,-0.086285,0,3,9758445,2.37,22,22,22,258584,-1057202,-4817615.802,0.019853,0.041544,-0.001125,-319868.039,-0.051397,0,0,0,0.470012,-0.051397
57.687527,11.979803,-0.349471,-0.004429,-0.088117,0,3,9758455,2.38,22,22,22,260756,-1054853,-4817615.802,0.020196,0.041498,-0.001124,-317012.8061,-0.051694,0,0,0,0.469839,-0.051694
57.687527,11.979803,-0.351865,-0.000764,-0.090713,0,3,9758465,2.39,22,22,22,262908,-1052526,-4817615.802,0.020365,0.041641,-0.001137,-314183.0596,-0.052006,0,0,0,0.469656,-0.052006
57.687527,11.979803,-0.339897,-0.005192,-0.091172,0,3,9758475,2.4,22,22,22,265042,-1050220,-4817615.802,0.019936,0.04142,-0.001149,-311378.572,-0.051356,0,0,0,0.470036,-0.051356
57.687527,11.979803,-0.360243,-0.00672,-0.090713,0,3,9758485,2.41,22,22,22,267156,-1047934,-4817615.802,0.02063,0.041374,-0.001145,-308599.1178,-0.052004,0,0,0,0.469657,-0.052004
57.687527,11.979803,-0.363833,-0.005192,-0.091783,0,3,9758495,2.42,22,22,22,269252,-1045669,-4817615.802,0.020922,0.041407,-0.001152,-305844.4736,-0.052328,0,0,0,0.469468,-0.052328
57.687527,11.979803,-0.341094,-0.010232,-0.088728,0,3,9758505,2.43,22,22,22,271329,-1043424,-4817615.802,0.020087,0.040933,-0.001147,-303114.4179,-0.05102,0,0,0,0.470232,-0.05102
57.687527,11.979803,-0.339897,-0.004581,-0.091172,0,3,9758515,2.44,22,22,22,273388,-1041199,-4817615.802,0.01983,0.040799,-0.001148,-300408.7312,-0.050629,0,0,0,0.47046,-0.050629
57.687527,11.979803,-0.366227,-0.005651,-0.091324,0,3,9758525,2.45,22,22,22,275428,-1038994,-4817615.802,0.020804,0.040911,-0.001143,-297727.196,-0.051715,0,0,0,0.469826,-0.051715
57.687527,11.979803,-0.367424,-0.003971,-0.089186,0,3,9758535,2.46,22,22,22,277450,-1036809,-4817615.802,0.021072,0.041063,-0.001138,-295069.5967,-0.052134,0,0,0,0.469582,-0.052134
57.687527,11.979803,-0.381786,-0.007636,-0.087965,0,3,9758545,2.47,22,22,22,279455,-1034643,-4817615.802,0.021704,0.041162,-0.001131,-292435.7197,-0.052866,0,0,0,0.469155,-0.052866
57.687527,11.979803,-0.350668,-0.00733,-0.094073,0,3,9758555,2.48,22,22,22,281441,-1032497,-4817615.802,0.020622,0.040901,-0.001166,-289825.3532,-0.051523,0,0,0,0.469938,-0.051523
57.687527,11.979803,-0.351865,-0.007483,-0.090103,0,3,9758565,2.49,22,22,22,283410,-1030370,-4817615.802,0.020416,0.040723,-0.001154,-287238.2873,-0.051138,0,0,0,0.470163,-0.051138
57.687527,11.979803,-0.354259,-0.001222,-0.086285,0,3,9758575,2.5,22,22,22,285361,-1028262,-4817615.802,0.020457,0.040907,-0.001126,-284674.3142,-0.051364,0,0,0,0.470031,-0.051364
57.687527,11.979803,-0.369817,-0.003665,-0.090713,0,3,9758585,2.51,22,22,22,287295,-1026173,-4817615.802,0.02109,0.041117,-0.001135,-282133.2275,-0.052207,0,0,0,0.469539,-0.052207
57.687527,11.979803,-0.366227,-0.004429,-0.08827,0,3,9758595,2.52,22,22,22,289211,-1024103,-4817615.802,0.0211,0.041207,-0.001133,-279614.8231,-0.052306,0,0,0,0.469481,-0.052306
57.687527,11.979803,-0.360243,-0.008552,-0.092852,0,3,9758605,2.53,22,22,22,291111,-1022051,-4817615.802,0.020869,0.041017,-0.001156,-277118.8985,-0.051887,0,0,0,0.469726,-0.051887
57.687527,11.979803,-0.356652,-0.007483,-0.089034,0,3,9758615,2.54,22,22,22,292993,-1020017,-4817615.802,0.020666,0.040871,-0.001146,-274645.253,-0.051537,0,0,0,0.46993,-0.051537
57.687527,11.979803,-0.350668,-0.002902,-0.086285,0,3,9758625,2.55,22,22,22,294859,-1018002,-4817615.802,0.020378,0.040911,-0.001126,-272193.6878,-0.051289,0,0,0,0.470075,-0.051289
57.687527,11.979803,-0.357849,-0.00336,-0.092241,0,3,9758635,2.56,22,22,22,296709,-1016005,-4817615.803,0.020602,0.041012,-0.001143,-269764.0057,-0.051614,0,0,0,0.469885,-0.051614
57.687527,11.979803,-0.344684,-0.006872,-0.089492,0,3,9758645,2.57,22,22,22,298541,-1014026,-4817615.803,0.020135,0.040783,-0.001142,-267356.0115,-0.050918,0,0,0,0.470291,-0.050918
57.687527,11.979803,-0.357849,-0.00336,-0.087201,0,3,9758655,2.58,22,22,22,300358,-1012064,-4817615.803,0.02054,0.04091,-0.001124,-264969.5115,-0.051449,0,0,0,0.469981,-0.051449
57.687527,11.979803,-0.356652,-0.000764,-0.092241,0,3,9758665,2.59,22,22,22,302158,-1010120,-4817615.803,0.020591,0.041119,-0.001143,-262604.3138,-0.05171,0,0,0,0.469829,-0.05171
57.687527,11.979803,-0.348275,-0.007025,-0.089797,0,3,9758675,2.6,22,22,22,303943,-1008193,-4817615.803,0.020281,0.040914,-0.001143,-260260.2284,-0.051195,0,0,0,0.470129,-0.051195
57.687527,11.979803,-0.356652,-0.003512,-0.092852,0,3,9758685,2.61,22,22,22,305711,-1006284,-4817615.803,0.020534,0.040999,-0.001153,-257937.0668,-0.051533,0,0,0,0.469933,-0.051533
57.687527,11.979803,-0.362636,-0.00504,-0.090408,0,3,9758695,2.62,22,22,22,307464,-1004392,-4817615.803,0.020829,0.041055,-0.001147,-255634.6422,-0.051884,0,0,0,0.469728,-0.051884
57.687527,11.979803,-0.351865,-0.004276,-0.091935,0,3,9758705,2.63,22,22,22,309201,-1002516,-4817615.803,0.020473,0.041015,-0.001156,-253352.7694,-0.051487,0,0,0,0.469959,-0.051487
57.687527,11.979803,-0.36144,-0.004887,-0.092852,0,3,9758715,2.64,22,22,22,310923,-1000658,-4817615.803,0.02077,0.041065,-0.00116,-251091.2652,-0.051835,0,0,0,0.469756,-0.051835
57.687527,11.979803,-0.360243,-0.002902,-0.093615,0,3,9758725,2.65,22,22,22,312630,-998816,-4817615.803,0.020792,0.041183,-0.001167,-248849.9475,-0.051975,0,0,0,0.469674,-0.051975
57.687527,11.979803,-0.362636,-0.004581,-0.089644,0,3,9758735,2.66,22,22,22,314321,-996990,-4817615.803,0.020898,0.041238,-0.001152,-246628.6364,-0.052136,0,0,0,0.469581,-0.052136
57.687527,11.979803,-0.331519,-0.007025,-0.090103,0,3,9758745,2.67,44,44,44,30383,-294952,-7432680.229,0.019695,0.040833,-0.001154,-314220.9603,-0.050527,0,0,0,0.470519,-0.050527
57.687527,11.979803,-0.363833,-0.00672,-0.087812,0,3,9758755,2.68,44,44,44,29432,-297947,-7432680.229,0.020681,0.040875,-0.001128,-311416.1344,-0.051556,0,0,0,0.469919,-0.051556
57.687527,11.979803,-0.366227,-0.00672,-0.090103,0,3,9758765,2.69,44,44,44,28490,-300915,-7432680.229,0.020993,0.040885,-0.001135,-308636.3449,-0.051879,0,0,0,0.469731,-0.051879
57.687527,11.979803,-0.363833,-0.001374,-0.091477,0,3,9758775,2.7,44,44,44,27556,-303856,-7432680.229,0.020972,0.041117,-0.001147,-305881.3684,-0.052089,0,0,0,0.469608,-0.052089
57.687527,11.979803,-0.350668,-0.003971,-0.086132,0,3,9758785,2.71,44,44,44,26630,-306772,-7432680.229,0.02046,0.041074,-0.001129,-303150.9833,-0.051534,0,0,0,0.469932,-0.051534
57.687527,11.979803,-0.349471,-0.006872,-0.090255,0,3,9758795,2.72,44,44,44,25712,-309661,-7432680.23,0.020297,0.040899,-0.001138,-300444.9703,-0.051196,0,0,0,0.470129,-0.051196
57.687527,11.979803,-0.36503,-0.003207,-0.091019,0,3,9758805,2.73,44,44,44,24803,-312524,-7432680.23,0.020866,0.04109,-0.001141,-297763.1116,-0.051956,0,0,0,0.469686,-0.051956
57.687527,11.979803,-0.369817,-0.003512,-0.095295,0,3,9758815,2.74,44,44,44,23901,-315362,-7432680.23,0.021192,0.04127,-0.001167,-295105.1917,-0.052462,0,0,0,0.46939,-0.052462
57.687527,11.979803,-0.357849,-0.005803,-0.091324,0,3,9758825,2.75,44,44,44,23008,-318175,-7432680.23,0.020801,0.041185,-0.001164,-292470.997,-0.051986,0,0,0,0.469668,-0.051986
57.687527,11.979803,-0.36503,-0.008705,-0.088728,0,3,9758835,2.76,44,44,44,22122,-320962,-7432680.23,0.020991,0.04106,-0.001147,-289860.3156,-0.052052,0,0,0,0.46963,-0.052052
57.687527,11.979803,-0.344684,-0.00733,-0.087812,0,3,9758845,2.77,44,44,44,21244,-323725,-7432680.23,0.020223,0.040787,-0.001139,-287272.9377,-0.051009,0,0,0,0.470238,-0.051009
57.687527,11.979803,-0.354259,-0.004887,-0.09331,0,3,9758855,2.78,44,44,44,20374,-326462,-7432680.23,0.020417,0.040788,-0.001153,-284708.6552,-0.051205,0,0,0,0.470124,-0.051205
57.687527,11.979803,-0.347078,-0.006261,-0.090561,0,3,9758865,2.79,44,44,44,19512,-329176,-7432680.23,0.020175,0.040637,-0.001149,-282167.262,-0.050812,0,0,0,0.470353,-0.050812
57.687527,11.979803,-0.353062,-0.008094,-0.086437,0,3,9758875,2.8,44,44,44,18657,-331865,-7432680.23,0.020347,0.040484,-0.001124,-279648.5538,-0.050831,0,0,0,0.470342,-0.050831
57.687527,11.979803,-0.353062,-0.006567,-0.087201,0,3,9758885,2.81,44,44,44,17810,-334530,-7432680.23,0.020187,0.040369,-0.001126,-277152.3281,-0.050556,0,0,0,0.470502,-0.050556
57.687527,11.979803,-0.318354,-0.007636,-0.092393,0,3,9758896,2.821,44,44,44,16970,-337171,-7432680.23,0.020333,0.040307,-0.001117,-274678.3842,-0.05064,0,0,0,0.470454,-0.05064
57.687527,11.979803,-0.318354,-0.007636,-0.092393,0,3,9758905,2.83,44,44,44,16138,-339789,-7432680.23,0.018992,0.039814,-0.001144,-272226.5233,-0.048806,0,0,0,0.471524,-0.048806
57.687527,11.979803,-0.353062,-0.005192,-0.092852,0,3,9758916,2.841,44,44,44,15313,-342383,-7432680.23,0.020036,0.039777,-0.001126,-269796.5481,-0.049813,0,0,0,0.470936,-0.049813
57.687527,11.979803,-0.353062,-0.005192,-0.092852,0,3,9758925,2.85,44,44,44,14495,-344954,-7432680.23,0.020264,0.03982,-0.00114,-267388.2634,-0.050084,0,0,0,0.470778,-0.050084
57.687527,11.979803,-0.350668,-0.006261,-0.093921,0,3,9758935,2.86,44,44,44,13685,-347502,-7432680.23,0.019228,0.039414,-0.001147,-265001.4755,-0.048642,0,0,0,0.471619,-0.048642
57.687527,11.979803,-0.356652,-0.009163,-0.090561,0,3,9758945,2.87,44,44,44,12882,-350028,-7432680.23,0.019969,0.039442,-0.001147,-262635.9925,-0.049411,0,0,0,0.471171,-0.049411
57.687527,11.979803,-0.348275,-0.005651,-0.090561,0,3,9758955,2.88,44,44,44,12085,-352530,-7432680.23,0.020366,0.03935,-0.001136,-260291.6243,-0.049717,0,0,0,0.470992,-0.049717
57.687527,11.979803,-0.33511,-0.003207,-0.090713,0,3,9758965,2.89,44,44,44,11296,-355011,-7432680.23,0.020119,0.039329,-0.001135,-257968.1825,-0.049448,0,0,0,0.471149,-0.049448
57.687527,11.979803,-0.349471,-0.009316,-0.090561,0,3,9758975,2.9,44,44,44,10514,-357469,-7432680.23,0.019546,0.039305,-0.001135,-255665.4801,-0.048851,0,0,0,0.471497,-0.048851
57.687527,11.979803,-0.367424,-0.005192,-0.096517,0,3,9758985,2.91,44,44,44,9739,-359905,-7432680.23,0.019982,0.039161,-0.001128,-253383.3321,-0.049143,0,0,0,0.471327,-0.049143
57.687527,11.979803,-0.368621,-0.007789,-0.092393,0,3,9758995,2.92,44,44,44,8970,-362320,-7432680.23,0.020779,0.039391,-0.001153,-251121.555,-0.05017,0,0,0,0.470728,-0.05017
57.687527,11.979803,-0.343487,-0.00733,-0.089339,0,3,9759005,2.93,44,44,44,8209,-364713,-7432680.23,0.021013,0.039452,-0.001151,-248879.967,-0.050466,0,0,0,0.470555,-0.050466
57.687527,11.979803,-0.36144,-0.006872,-0.088423,0,3,9759015,2.94,44,44,44,7454,-367084,-7432680.23,0.020077,0.039258,-0.001142,-246658.3879,-0.049334,0,0,0,0.471215,-0.049334
57.687527,11.979803,-0.345881,-0.005192,-0.09163,0,3,9759025,2.95,44,44,44,6706,-369435,-7432680.23,0.020568,0.039338,-0.001123,-244456.639,-0.049906,0,0,0,0.470882,-0.049906
57.687527,11.979803,-0.36503,-0.007941,-0.090561,0,3,9759035,2.96,44,44,44,5964,-371764,-7432680.23,0.020068,0.039304,-0.001136,-242274.5434,-0.049372,0,0,0,0.471194,-0.049372
57.687527,11.979803,-0.357849,-0.000764,-0.091324,0,3,9759045,2.97,44,44,44,5229,-374073,-7432680.23,0.02071,0.039365,-0.00113,-240111.9256,-0.050075,0,0,0,0.470783,-0.050075
57.687527,11.979803,-0.342291,-0.003512,-0.085674,0,3,9759055,2.98,44,44,44,4500,-376360,-7432680.23,0.020576,0.039668,-0.001136,-237968.6117,-0.050244,0,0,0,0.470685,-0.050244
57.687527,11.979803,-0.382982,-0.003512,-0.088881,0,3,9759065,2.99,44,44,44,3778,-378628,-7432680.23,0.01995,0.039666,-0.001115,-235844.4295,-0.050244,0,0,0,0.470685,-0.050244
57.687527,11.979803,-0.353062,-0.007483,-0.087506,0,3,9759075,3,44,44,44,3063,-380875,-7432680.23,0.021418,0.040124,-0.001111,-233739.2082,-0.049615,0,0,0,0.471051,-0.049615
57.687527,11.979803,-0.332716,-0.004276,-0.092241,0,3,9759085,3.01,44,44,44,2353,-383102,-7432680.23,0.020585,0.039964,-0.00112,-231652.7785,-0.051542,0,0,0,0.469927,-0.051542
57.687527,11.979803,-0.360243,-0.008094,-0.090866,0,3,9759095,3.02,44,44,44,1650,-385310,-7432680.23,0.019593,0.039797,-0.001142,-229584.9727,-0.050549,0,0,0,0.470507,-0.050549
57.687527,11.979803,-0.356652,-0.005803,-0.088575,0,3,9759105,3.03,44,44,44,953,-387497,-7432680.23,0.02045,0.039796,-0.001134,-227535.6245,-0.04939,0,0,0,0.471183,-0.04939
57.687527,11.979803,-0.353062,-0.005651,-0.089644,0,3,9759115,3.04,44,44,44,262,-389665,-7432680.23,0.020496,0.039828,-0.001126,-225504.5693,-0.050246,0,0,0,0.470684,-0.050246
57.687527,11.979803,-0.366227,-0.005803,-0.08995,0,3,9759125,3.05,44,44,44,-422,-391814,-7432680.23,0.020366,0.039823,-0.001128,-223491.6436,-0.050324,0,0,0,0.470638,-0.050324
57.687527,11.979803,-0.349471,-0.00504,-0.089034,0,3,9759135,3.06,44,44,44,-1101,-393943,-7432680.231,0.020857,0.039958,-0.001128,-221496.6857,-0.05019,0,0,0,0.470716,-0.05019
57.687527,11.979803,-0.410509,-0.004734,-0.092546,0,3,9759145,3.07,44,44,44,-1774,-396053,-7432680.231,0.020312,0.039919,-0.00113,-219519.5352,-0.050815,0,0,0,0.470351,-0.050815
57.687527,11.979803,-0.355456,-0.002749,-0.089492,0,3,9759155,3.08,44,44,44,-2440,-398145,-7432680.231,0.022637,0.040566,-0.001136,-217560.0332,-0.053203,0,0,0,0.468958,-0.053203
57.687527,11.979803,-0.344684,-0.009468,-0.096669,0,3,9759165,3.09,44,44,44,-3101,-400218,-7432680.231,0.020978,0.040574,-0.00115,-215618.022,-0.051552,0,0,0,0.469921,-0.051552
57.687527,11.979803,-0.336306,-0.007483,-0.089186,0,3,9759175,3.1,44,44,44,-3756,-402272,-7432680.231,0.020189,0.040214,-0.00118,-213693.3456,-0.050402,0,0,0,0.470592,-0.050402
57.687527,11.979803,-0.355456,-0.004429,-0.090103,0,3,9759185,3.11,44,44,44,-4405,-404308,-7432680.231,0.019663,0.039935,-0.001152,-211785.8493,-0.050402,0,0,0,0.470592,-0.050402
57.687527,11.979803,-0.368621,-0.004734,-0.092546,0,3,9759195,3.12,44,44,44,-5049,-406326,-7432680.231,0.020287,0.040055,-0.001135,-209895.3797,-0.049598,0,0,0,0.471061,-0.049598
57.687527,11.979803,-0.353062,-0.005192,-0.09163,0,3,9759205,3.13,44,44,44,-5687,-408325,-7432680.231,0.020951,0.040256,-0.001143,-208021.7848,-0.050343,0,0,0,0.470627,-0.050343
57.687527,11.979803,-0.342291,-0.006261,-0.094073,0,3,9759215,3.14,44,44,44,-6319,-410307,-7432680.231,0.020494,0.040223,-0.00115,-206164.9139,-0.051207,0,0,0,0.470123,-0.051207
57.687527,11.979803,-0.36503,-0.005498,-0.090255,0,3,9759225,3.15,44,44,44,-6945,-412271,-7432680.231,0.019967,0.040047,-0.001163,-204324.6179,-0.050717,0,0,0,0.470408,-0.050717
57.687527,11.979803,-0.36144,-0.005498,-0.088728,0,3,9759235,3.16,44,44,44,-7566,-414218,-7432680.231,0.020738,0.040192,-0.001142,-202500.7487,-0.050014,0,0,0,0.470819,-0.050014
57.687527,11.979803,-0.333913,-0.003818,-0.094379,0,3,9759245,3.17,44,44,44,-8182,-416147,-7432680.231,0.020774,0.04025,-0.001133,-200693.1598,-0.05093,0,0,0,0.470284,-0.05093
57.687527,11.979803,-0.333913,-0.00672,-0.091783,0,3,9759255,3.18,44,44,44,-8792,-418059,-7432680.231,0.019701,0.04009,-0.00116,-198901.7057,-0.051024,0,0,0,0.470229,-0.051024
57.687527,11.979803,-0.349471,-0.007025,-0.093768,0,3,9759265,3.19,44,44,44,-9397,-419954,-7432680.231,0.019455,0.039855,-0.001151,-197126.2425,-0.049791,0,0,0,0.470949,-0.049791
57.687527,11.979803,-0.339897,-0.007789,-0.09331,0,3,9759275,3.2,44,44,44,-9996,-421832,-7432680.231,0.019999,0.039795,-0.001152,-195366.6275,-0.04931,0,0,0,0.47123,-0.04931
57.687527,11.979803,-0.336306,-0.005192,-0.090713,0,3,9759285,3.21,44,44,44,-10590,-423693,-7432680.231,0.019705,0.039572,-0.001154,-193622.7191,-0.049278,0,0,0,0.471248,-0.049278
57.687527,11.979803,-0.354259,-0.006414,-0.092393,0,3,9759295,3.22,44,44,44,-11179,-425538,-7432680.231,0.019517,0.03947,-0.001141,-191894.3772,-0.048987,0,0,0,0.471418,-0.048987
57.687527,11.979803,-0.347078,-0.004429,-0.091019,0,3,9759305,3.23,44,44,44,-11762,-427366,-7432680.231,0.020177,0.039511,-0.001139,-190181.4628,-0.048987,0,0,0,0.471418,-0.048987
57.687527,11.979803,-0.355456,-0.004429,-0.087506,0,3,9759315,3.24,44,44,44,-12341,-429177,-7432680.231,0.020042,0.039539,-0.001137,-188483.8383,-0.049688,0,0,0,0.471009,-0.049688
57.687527,11.979803,-0.348275,-0.003665,-0.092241,0,3,9759325,3.25,44,44,44,-12914,-430973,-7432680.231,0.020344,0.039664,-0.001118,-186801.3671,-0.04958,0,0,0,0.471072,-0.04958
57.687527,11.979803,-0.351865,-0.006109,-0.091783,0,3,9759335,3.26,44,44,44,-13482,-432752,-7432680.231,0.020135,0.039723,-0.001136,-185133.9139,-0.050008,0,0,0,0.470822,-0.050008
57.687527,11.979803,-0.356652,-0.008552,-0.094684,0,3,9759345,3.27,44,44,44,-14046,-434516,-7432680.231,0.020234,0.039706,-0.00114,-183481.3448,-0.049858,0,0,0,0.47091,-0.049858
57.687527,11.979803,-0.366227,-0.005956,-0.088881,0,3,9759355,3.28,44,44,44,-14604,-436264,-7432680.231,0.020442,0.039612,-0.001156,-181843.5269,-0.04994,0,0,0,0.470862,-0.04994
57.687527,11.979803,-0.382982,-0.004429,-0.094073,0,3,9759365,3.29,44,44,44,-15157,-437996,-7432680.231,0.02086,0.039748,-0.001134,-180220.3284,-0.050054,0,0,0,0.470795,-0.050054
57.687527,11.979803,-0.363833,-0.007789,-0.08659,0,3,9759375,3.3,44,44,44,-15706,-439713,-7432680.231,0.021623,0.040102,-0.00115,-178611.6189,-0.050608,0,0,0,0.470472,-0.050608
57.687527,11.979803,-0.351865,-0.007941,-0.09163,0,3,9759385,3.31,44,44,44,-16249,-441414,-7432680.231,0.021054,0.040031,-0.001132,-177017.2691,-0.051724,0,0,0,0.469821,-0.051724
57.687527,11.979803,-0.368621,-0.004581,-0.092241,0,3,9759395,3.32,44,44,44,-16788,-443100,-7432680.231,0.020453,0.039856,-0.001146,-175437.1508,-0.051085,0,0,0,0.470194,-0.051085
57.687527,11.979803,-0.350668,-0.003512,-0.090103,0,3,9759405,3.33,44,44,44,-17322,-444771,-7432680.231,0.020974,0.040068,-0.001146,-173871.1369,-0.05031,0,0,0,0.470646,-0.05031
57.687527,11.979803,-0.351865,-0.008399,-0.095295,0,3,9759415,3.34,44,44,44,-17852,-446428,-7432680.231,0.020394,0.040104,-0.001144,-172319.1016,-0.051042,0,0,0,0.470219,-0.051042
57.687527,11.979803,-0.351865,-0.004123,-0.092546,0,3,9759425,3.35,44,44,44,-18376,-448069,-7432680.231,0.020314,0.039934,-0.001164,-170780.92,-0.050498,0,0,0,0.470536,-0.050498
57.687527,11.979803,-0.350668,-0.00672,-0.090561,0,3,9759435,3.36,44,44,44,-18896,-449696,-7432680.231,0.020288,0.039994,-0.001157,-169256.4686,-0.050248,0,0,0,0.470682,-0.050248
57.687527,11.979803,-0.362636,-0.009316,-0.088117,0,3,9759445,3.37,44,44,44,-19412,-451308,-7432680.231,0.020237,0.039911,-0.001146,-167745.6247,-0.050282,0,0,0,0.470662,-0.050282
57.687527,11.979803,-0.339897,-0.005956,-0.094531,0,3,9759455,3.38,44,44,44,-19922,-452906,-7432680.231,0.020691,0.039837,-0.001127,-166248.267,-0.050149,0,0,0,0.47074,-0.050149
57.687527,11.979803,-0.342291,-0.005956,-0.090255,0,3,9759465,3.39,44,44,44,-20429,-454489,-7432680.231,0.019867,0.039664,-0.001154,-164764.2749,-0.049531,0,0,0,0.471101,-0.049531
57.687527,11.979803,-0.351865,-0.004887,-0.094379,0,3,9759475,3.4,44,44,44,-20931,-456058,-7432680.232,0.019794,0.039573,-0.00114,-163293.5293,-0.049367,0,0,0,0.471196,-0.049367
57.687527,11.979803,-0.368621,-0.009163,-0.088575,0,3,9759485,3.41,44,44,44,-21428,-457614,-7432680.232,0.020151,0.039642,-0.001151,-161835.9118,-0.049793,0,0,0,0.470948,-0.049793
57.687527,11.979803,-0.349471,-0.005192,-0.093462,0,3,9759495,3.42,44,44,44,-21921,-459155,-7432680.232,0.020891,0.039658,-0.001129,-160391.3053,-0.050549,0,0,0,0.470506,-0.050549
57.687527,11.979803,-0.351865,-0.006872,-0.090408,0,3,9759505,3.43,44,44,44,-22410,-460683,-7432680.232,0.020301,0.039623,-0.00115,-158959.5936,-0.050549,0,0,0,0.470506,-0.050549
57.687527,11.979803,-0.359046,-0.004429,-0.090713,0,3,9759515,3.44,44,44,44,-22894,-462197,-7432680.232,0.020263,0.039567,-0.00114,-157540.6617,-0.049925,0,0,0,0.470871,-0.049925
57.687527,11.979803,-0.360243,-0.00672,-0.091324,0,3,9759525,3.45,44,44,44,-23374,-463697,-7432680.232,0.020536,0.039714,-0.001136,-156134.3955,-0.049831,0,0,0,0.470926,-0.049831
57.687527,11.979803,-0.355456,-0.004123,-0.093462,0,3,9759535,3.46,44,44,44,-23850,-465184,-7432680.232,0.020651,0.039735,-0.001139,-154740.6819,-0.05025,0,0,0,0.470681,-0.05025
57.687527,11.979803,-0.347078,-0.007483,-0.090408,0,3,9759545,3.47,44,44,44,-24322,-466658,-7432680.232,0.020491,0.039825,-0.001152,-153359.4088,-0.050386,0,0,0,0.470602,-0.050386
57.687527,11.979803,-0.347078,-0.005192,-0.088117,0,3,9759555,3.48,44,44,44,-24789,-468119,-7432680.232,0.020128,0.039666,-0.001144,-151990.4653,-0.050316,0,0,0,0.470643,-0.050316
57.687527,11.979803,-0.347078,-0.005192,-0.088117,0,3,9759565,3.49,44,44,44,-25253,-469566,-7432680.232,0.02004,0.039652,-0.001126,-150633.7412,-0.049794,0,0,0,0.470947,-0.049794
57.687527,11.979803,-0.371014,-0.004581,-0.092699,0,3,9759575,3.5,44,44,44,-25712,-471001,-7432680.232,0.019925,0.039592,-0.001133,-149289.1275,-0.049692,0,0,0,0.471007,-0.049692
57.687527,11.979803,-0.371014,-0.004581,-0.092699,0,3,9759585,3.51,44,44,44,-26167,-472423,-7432680.232,0.020936,0.039873,-0.001138,-147956.5162,-0.049518,0,0,0,0.471108,-0.049518
57.687527,11.979803,-0.36144,-0.006872,-0.089186,0,3,9759595,3.52,44,44,44,-26618,-473832,-7432680.232,0.020044,0.039932,-0.001145,-146635.7999,-0.050809,0,0,0,0.470355,-0.050809
57.687527,11.979803,-0.341094,-0.007025,-0.092699,0,3,9759605,3.53,44,44,44,-27066,-475228,-7432680.232,0.020604,0.039974,-0.00113,-145326.8727,-0.049975,0,0,0,0.470841,-0.049975
57.687527,11.979803,-0.348275,-0.003818,-0.089492,0,3,9759615,3.54,44,44,44,-27066,-475228,-7432680.232,0.020604,0.039974,-0.00113,-145326.8727,-0.050578,0,0,0,0.470489,-0.050578
57.687527,11.979803,-0.343487,-0.004276,-0.090561,0,3,9759625,3.55,44,44,44,-27948,-477984,-7432680.232,0.02005,0.039828,-0.001133,-142743.9651,-0.049684,0,0,0,0.471011,-0.049684
57.687527,11.979803,-0.347078,-0.00504,-0.091324,0,3,9759635,3.56,44,44,44,-28384,-479343,-7432680.232,0.019893,0.039814,-0.001134,-141469.7771,-0.049879,0,0,0,0.470898,-0.049879
57.687527,11.979803,-0.363833,-0.005498,-0.08827,0,3,9759645,3.57,44,44,44,-28815,-480691,-7432680.232,0.02001,0.039807,-0.001137,-140206.9628,-0.049817,0,0,0,0.470934,-0.049817
57.687527,11.979803,-0.357849,-0.004887,-0.09163,0,3,9759655,3.58,44,44,44,-29243,-482026,-7432680.232,0.020684,0.039953,-0.001121,-138955.4207,-0.050637,0,0,0,0.470455,-0.050637
57.687527,11.979803,-0.355456,-0.005956,-0.089339,0,3,9759665,3.59,44,44,44,-29667,-483349,-7432680.232,0.020605,0.040018,-0.001137,-137715.05,-0.050623,0,0,0,0.470463,-0.050623
57.687527,11.979803,-0.369817,-0.00733,-0.090103,0,3,9759675,3.6,44,44,44,-30087,-484661,-7432680.232,0.020497,0.040007,-0.001133,-136485.7512,-0.050504,0,0,0,0.470533,-0.050504
57.687527,11.979803,-0.356652,-0.004581,-0.092088,0,3,9759685,3.61,44,44,44,-30504,-485960,-7432680.232,0.021038,0.040086,-0.001132,-135267.4253,-0.051124,0,0,0,0.470171,-0.051124
57.687527,11.979803,-0.354259,-0.006109,-0.08995,0,3,9759695,3.62,44,44,44,-30917,-487248,-7432680.232,0.020644,0.040126,-0.001147,-134059.9744,-0.05077,0,0,0,0.470378,-0.05077
57.687527,11.979803,-0.33511,-0.003818,-0.091477,0,3,9759705,3.63,44,44,44,-31326,-488525,-7432680.232,0.020465,0.040086,-0.001141,-132863.3015,-0.050551,0,0,0,0.470505,-0.050551
57.687527,11.979803,-0.344684,-0.00168,-0.093004,0,3,9759715,3.64,44,44,44,-31731,-489790,-7432680.232,0.01967,0.039967,-0.001147,-131677.3103,-0.049637,0,0,0,0.471039,-0.049637
57.687527,11.979803,-0.341094,-0.006872,-0.084605,0,3,9759725,3.65,44,44,44,-32133,-491044,-7432680.232,0.019868,0.040105,-0.001148,-130501.9055,-0.049973,0,0,0,0.470843,-0.049973
57.687527,11.979803,-0.343487,-0.00504,-0.089492,0,3,9759735,3.66,44,44,44,-32532,-492287,-7432680.232,0.019774,0.039936,-0.001112,-129336.9926,-0.04971,0,0,0,0.470996,-0.04971
57.687527,11.979804,-0.354259,-0.01069,-0.091324,0,3,9759745,3.67,66,66,66,-27780,-182510,-7089043.487,0.019838,0.039893,-0.001118,-63161.30238,-0.049731,0,0,0,0.470984,-0.049731
57.687527,11.979804,-0.347078,-0.00672,-0.091019,0,3,9759755,3.68,66,66,66,-27538,-181926,-7089043.487,0.020271,0.03968,-0.001129,-62597.48518,-0.049952,0,0,0,0.470855,-0.049952
57.687527,11.979804,-0.349471,-0.00336,-0.090103,0,3,9759765,3.69,66,66,66,-27297,-181348,-7089043.487,0.020071,0.039579,-0.001135,-62038.70073,-0.04965,0,0,0,0.471031,-0.04965
57.687527,11.979804,-0.344684,-0.009316,-0.091783,0,3,9759775,3.7,66,66,66,-27059,-180776,-7089043.487,0.020118,0.039687,-0.00113,-61484.9041,-0.049805,0,0,0,0.470941,-0.049805
57.687527,11.979804,-0.357849,-0.005956,-0.091324,0,3,9759785,3.71,66,66,66,-26822,-180208,-7089043.487,0.019942,0.039438,-0.001139,-60936.05077,-0.049381,0,0,0,0.471188,-0.049381
57.687527,11.979804,-0.342291,-0.005192,-0.089339,0,3,9759795,3.72,66,66,66,-26588,-179646,-7089043.487,0.02041,0.03952,-0.001135,-60392.09662,-0.04993,0,0,0,0.470868,-0.04993
57.687527,11.979804,-0.357849,-0.004734,-0.09163,0,3,9759805,3.73,66,66,66,-26356,-179088,-7089043.487,0.019903,0.039448,-0.001131,-59852.9979,-0.049351,0,0,0,0.471206,-0.049351
57.687527,11.979804,-0.33511,-0.005498,-0.092699,0,3,9759815,3.74,66,66,66,-26126,-178536,-7089043.487,0.020402,0.039592,-0.001133,-59318.7113,-0.049994,0,0,0,0.47083,-0.049994
57.687527,11.979804,-0.350668,-0.002902,-0.09331,0,3,9759825,3.75,66,66,66,-25898,-177988,-7089043.487,0.019623,0.039421,-0.001147,-58789.19384,-0.049044,0,0,0,0.471385,-0.049044
57.687527,11.979804,-0.36503,-0.006109,-0.094531,0,3,9759835,3.76,66,66,66,-25672,-177445,-7089043.487,0.020058,0.039595,-0.001147,-58264.40296,-0.049653,0,0,0,0.471029,-0.049653
57.687527,11.979804,-0.373408,-0.006109,-0.091935,0,3,9759845,3.77,66,66,66,-25448,-176907,-7089043.487,0.020729,0.039727,-0.001154,-57744.29646,-0.050455,0,0,0,0.470561,-0.050455
57.687527,11.979804,-0.339897,-0.004887,-0.094837,0,3,9759855,3.78,66,66,66,-25226,-176374,-7089043.487,0.021214,0.039906,-0.00115,-57228.83255,-0.05112,0,0,0,0.470173,-0.05112
57.687527,11.979804,-0.378195,-0.007789,-0.090561,0,3,9759865,3.79,66,66,66,-25006,-175846,-7089043.488,0.020011,0.039752,-0.00117,-56717.96976,-0.049762,0,0,0,0.470966,-0.049762
57.687527,11.979804,-0.353062,-0.005803,-0.091783,0,3,9759875,3.8,66,66,66,-24787,-175323,-7089043.488,0.021247,0.039937,-0.001144,-56211.66704,-0.051183,0,0,0,0.470137,-0.051183
57.687527,11.979804,-0.339897,-0.005192,-0.095142,0,3,9759885,3.81,66,66,66,-24571,-174804,-7089043.488,0.020538,0.039876,-0.001152,-55709.88368,-0.050414,0,0,0,0.470585,-0.050414
57.687527,11.979804,-0.354259,-0.003971,-0.090561,0,3,9759895,3.82,66,66,66,-24357,-174289,-7089043.488,0.019861,0.039744,-0.001168,-55212.57934,-0.049605,0,0,0,0.471057,-0.049605
57.687527,11.979804,-0.336306,-0.00733,-0.089797,0,3,9759905,3.83,66,66,66,-24144,-173780,-7089043.488,0.020271,0.039874,-0.001145,-54719.71403,-0.050146,0,0,0,0.470742,-0.050146
57.687527,11.979804,-0.367424,-0.005651,-0.090866,0,3,9759915,3.84,66,66,66,-23934,-173275,-7089043.488,0.019659,0.039618,-0.001139,-54231.24814,-0.049277,0,0,0,0.471249,-0.049277
57.687527,11.979804,-0.336306,-0.006414,-0.090408,0,3,9759925,3.85,66,66,66,-23725,-172774,-7089043.488,0.020737,0.039822,-0.00113,-53747.1424,-0.050559,0,0,0,0.470501,-0.050559
57.687527,11.979804,-0.36144,-0.00672,-0.091783,0,3,9759935,3.86,66,66,66,-23519,-172278,-7089043.488,0.019757,0.039589,-0.001138,-53267.35788,-0.049346,0,0,0,0.471208,-0.049346
57.687527,11.979804,-0.36144,-0.008094,-0.093157,0,3,9759945,3.87,66,66,66,-23314,-171786,-7089043.488,0.02052,0.039672,-0.001136,-52791.85601,-0.050192,0,0,0,0.470715,-0.050192
57.687527,11.979804,-0.354259,-0.008858,-0.085979,0,3,9759955,3.88,66,66,66,-23110,-171299,-7089043.488,0.020691,0.039638,-0.001148,-52320.59857,-0.05033,0,0,0,0.470634,-0.05033
57.687527,11.979804,-0.367424,-0.00504,-0.086437,0,3,9759965,3.89,66,66,66,-22909,-170816,-7089043.488,0.020442,0.039492,-0.001121,-51853.54766,-0.049933,0,0,0,0.470866,-0.049933
57.687527,11.979804,-0.343487,-0.006567,-0.091019,0,3,9759975,3.9,66,66,66,-22709,-170338,-7089043.488,0.020899,0.039696,-0.001107,-51390.66574,-0.050595,0,0,0,0.47048,-0.050595
57.687527,11.979804,-0.376998,-0.003818,-0.091324,0,3,9759985,3.91,66,66,66,-22512,-169863,-7089043.488,0.020068,0.039529,-0.001131,-50931.91561,-0.049597,0,0,0,0.471062,-0.049597
57.687527,11.979804,-0.354259,-0.003665,-0.092088,0,3,9759995,3.92,66,66,66,-22316,-169393,-7089043.488,0.0212,0.039908,-0.00113,-50477.26036,-0.051107,0,0,0,0.470181,-0.051107
57.687527,11.979804,-0.353062,-0.004734,-0.09163,0,3,9760005,3.93,66,66,66,-22121,-168927,-7089043.488,0.020574,0.03997,-0.001147,-50026.66346,-0.050544,0,0,0,0.470509,-0.050544
57.687527,11.979804,-0.337503,-0.006109,-0.092088,0,3,9760015,3.94,66,66,66,-21929,-168466,-7089043.488,0.020394,0.039997,-0.001148,-49580.08868,-0.050391,0,0,0,0.470599,-0.050391
57.687527,11.979804,-0.376998,-0.008552,-0.090713,0,3,9760025,3.95,66,66,66,-21738,-168008,-7089043.488,0.019742,0.039798,-0.001152,-49137.50011,-0.04954,0,0,0,0.471095,-0.04954
57.687527,11.979804,-0.369817,-0.005956,-0.09163,0,3,9760035,3.96,66,66,66,-21549,-167555,-7089043.488,0.021143,0.039944,-0.001136,-48698.86218,-0.051087,0,0,0,0.470193,-0.051087
57.687527,11.979804,-0.359046,-0.009163,-0.094379,0,3,9760045,3.97,66,66,66,-21361,-167105,-7089043.488,0.021177,0.040058,-0.001145,-48264.13962,-0.051235,0,0,0,0.470107,-0.051235
57.687527,11.979804,-0.342291,-0.003054,-0.092699,0,3,9760055,3.98,66,66,66,-21175,-166660,-7089043.488,0.020765,0.039887,-0.001164,-47833.29748,-0.050652,0,0,0,0.470446,-0.050652
57.687527,11.979804,-0.3387,-0.004887,-0.090255,0,3,9760065,3.99,66,66,66,-20991,-166218,-7089043.488,0.020007,0.039877,-0.001163,-47406.30112,-0.049884,0,0,0,0.470895,-0.049884
57.687527,11.979804,-0.349471,-0.005956,-0.091324,0,3,9760075,4,66,66,66,-20808,-165781,-7089043.488,0.019697,0.039782,-0.001146,-46983.11622,-0.049884,0,0,0,0.470895,-0.049884
57.687527,11.979804,-0.362636,-0.004734,-0.091324,0,3,9760085,4.01,66,66,66,-20628,-165347,-7089043.488,0.020048,0.039768,-0.001139,-46563.70874,-0.049479,0,0,0,0.471131,-0.049479
57.687527,11.979804,-0.371014,-0.00672,-0.091477,0,3,9760095,4.02,66,66,66,-20448,-164917,-7089043.488,0.020644,0.039937,-0.001137,-46148.04499,-0.049816,0,0,0,0.470934,-0.049816
57.687527,11.979804,-0.341094,-0.006261,-0.087965,0,3,9760105,4.03,66,66,66,-20270,-164492,-7089043.488,0.021065,0.040058,-0.001138,-45736.09153,-0.051123,0,0,0,0.470172,-0.051123
57.687527,11.979804,-0.360243,-0.004734,-0.087812,0,3,9760115,4.04,66,66,66,-20094,-164070,-7089043.488,0.020033,0.039854,-0.001132,-45327.81525,-0.049887,0,0,0,0.470893,-0.049887
57.687527,11.979804,-0.355456,-0.004734,-0.091172,0,3,9760125,4.05,66,66,66,-19920,-163651,-7089043.488,0.020551,0.039997,-0.001118,-44923.18333,-0.050548,0,0,0,0.470507,-0.050548
57.687527,11.979804,-0.344684,-0.008094,-0.089034,0,3,9760135,4.06,66,66,66,-19746,-163237,-7089043.488,0.020485,0.040049,-0.001133,-44522.16323,-0.050533,0,0,0,0.470516,-0.050533
57.687527,11.979804,-0.367424,-0.005651,-0.088575,0,3,9760145,4.07,66,66,66,-19575,-162826,-7089043.488,0.020046,0.039823,-0.001131,-44124.72272,-0.049869,0,0,0,0.470903,-0.049869
57.687527,11.979804,-0.353062,-0.006414,-0.090103,0,3,9760155,4.08,66,66,66,-19405,-162419,-7089043.488,0.020834,0.039996,-0.00112,-43730.82984,-0.05083,0,0,0,0.470342,-0.05083
57.687527,11.979804,-0.353062,-0.006414,-0.090103,0,3,9760165,4.09,66,66,66,-19236,-162015,-7089043.488,0.020451,0.039925,-0.001131,-43340.45293,-0.050376,0,0,0,0.470608,-0.050376
57.687527,11.979804,-0.349471,-0.006567,-0.092546,0,3,9760175,4.1,66,66,66,-19069,-161615,-7089043.488,0.021167,0.040206,-0.00114,-42953.5606,-0.051373,0,0,0,0.470026,-0.051373
57.687527,11.979804,-0.367424,-0.004581,-0.08995,0,3,9760185,4.11,66,66,66,-18904,-161219,-7089043.488,0.020396,0.040057,-0.001155,-42570.12175,-0.050453,0,0,0,0.470563,-0.050453
57.687527,11.979804,-0.373408,-0.003971,-0.092393,0,3,9760195,4.12,66,66,66,-18740,-160826,-7089043.488,0.020927,0.04025,-0.00114,-42190.10555,-0.051177,0,0,0,0.47014,-0.051177
57.687527,11.979804,-0.373408,-0.003971,-0.092393,0,3,9760205,4.13,66,66,66,-18577,-160437,-7089043.489,0.021292,0.040493,-0.001149,-41813.48145,-0.051786,0,0,0,0.469785,-0.051786
57.687527,11.979804,-0.356652,-0.004429,-0.089034,0,3,9760215,4.14,66,66,66,-18416,-160051,-7089043.489,0.02082,0.040526,-0.001135,-41440.21917,-0.051346,0,0,0,0.470041,-0.051346
57.687527,11.979804,-0.362636,-0.004123,-0.086285,0,3,9760225,4.15,66,66,66,-18256,-159669,-7089043.489,0.020625,0.040563,-0.001134,-41070.28871,-0.051188,0,0,0,0.470134,-0.051188
57.687527,11.979804,-0.356652,-0.007789,-0.088117,0,3,9760235,4.16,66,66,66,-18098,-159290,-7089043.489,0.02082,0.04069,-0.001118,-40703.66032,-0.05151,0,0,0,0.469946,-0.05151
57.687527,11.979804,-0.349471,-0.004581,-0.088575,0,3,9760245,4.17,66,66,66,-17941,-158914,-7089043.489,0.020633,0.040551,-0.001123,-40340.30453,-0.051184,0,0,0,0.470136,-0.051184
57.687527,11.979804,-0.350668,-0.003818,-0.087965,0,3,9760255,4.18,66,66,66,-17785,-158542,-7089043.489,0.020302,0.040513,-0.001127,-39980.19212,-0.050815,0,0,0,0.470351,-0.050815
57.687527,11.979804,-0.372211,-0.00504,-0.08995,0,3,9760265,4.19,66,66,66,-17631,-158173,-7089043.489,0.020275,0.040547,-0.001122,-39623.29416,-0.050822,0,0,0,0.470348,-0.050822
57.687527,11.979804,-0.372211,-0.004123,-0.091019,0,3,9760275,4.2,66,66,66,-17478,-157807,-7089043.489,0.021121,0.040745,-0.001127,-39269.58193,-0.051865,0,0,0,0.469738,-0.051865
57.687527,11.979804,-0.325535,-0.007636,-0.088881,0,3,9760285,4.21,66,66,66,-17327,-157445,-7089043.489,0.021319,0.040931,-0.00114,-38919.02701,-0.052249,0,0,0,0.469514,-0.052249
57.687527,11.979804,-0.351865,-0.007178,-0.088728,0,3,9760295,4.22,66,66,66,-17177,-157086,-7089043.489,0.01953,0.040428,-0.001146,-38571.60121,-0.049958,0,0,0,0.470851,-0.049958
57.687527,11.979804,-0.363833,-0.004276,-0.093004,0,3,9760305,4.23,66,66,66,-17028,-156730,-7089043.489,0.020146,0.040353,-0.001128,-38227.2766,-0.049958,0,0,0,0.470851,-0.049958
57.687527,11.979804,-0.342291,-0.007636,-0.091783,0,3,9760315,4.24,66,66,66,-16880,-156378,-7089043.489,0.020716,0.040519,-0.001141,-37886.02551,-0.051235,0,0,0,0.470106,-0.051235
57.687527,11.979804,-0.342291,-0.007636,-0.091783,0,3,9760325,4.25,66,66,66,-16734,-156028,-7089043.489,0.020034,0.040247,-0.001151,-37547.82049,-0.050281,0,0,0,0.470663,-0.050281
57.687527,11.979804,-0.367424,-0.00672,-0.091172,0,3,9760335,4.26,66,66,66,-16589,-155682,-7089043.489,0.020528,0.040206,-0.001145,-37212.63436,-0.050281,0,0,0,0.470663,-0.050281
57.687527,11.979804,-0.363833,-0.002596,-0.08827,0,3,9760345,4.27,66,66,66,-16446,-155338,-7089043.489,0.020964,0.040275,-0.001143,-36880.44016,-0.050734,0,0,0,0.470399,-0.050734
57.687527,11.979804,-0.348275,-0.00504,-0.090103,0,3,9760355,4.28,66,66,66,-16303,-154998,-7089043.489,0.020925,0.040487,-0.001132,-36551.2112,-0.05124,0,0,0,0.470104,-0.05124
57.687527,11.979804,-0.348275,-0.00504,-0.090103,0,3,9760365,4.29,66,66,66,-16162,-154661,-7089043.489,0.020314,0.0404,-0.00114,-36224.921,-0.051412,0,0,0,0.470003,-0.051412
57.687527,11.979804,-0.331519,-0.005956,-0.091783,0,3,9760375,4.3,66,66,66,-16022,-154327,-7089043.489,0.020695,0.040451,-0.001146,-35901.54333,-0.050715,0,0,0,0.47041,-0.050715
57.687527,11.979804,-0.354259,-0.006414,-0.091019,0,3,9760385,4.31,66,66,66,-15884,-153995,-7089043.489,0.019601,0.040154,-0.001155,-35581.05219,-0.051146,0,0,0,0.470159,-0.051146
57.687527,11.979804,-0.354259,-0.00504,-0.08827,0,3,9760395,4.32,66,66,66,-15747,-153667,-7089043.489,0.020239,0.040152,-0.001142,-35263.42183,-0.049754,0,0,0,0.47097,-0.049754
57.687527,11.979804,-0.342291,-0.006872,-0.092393,0,3,9760405,4.33,66,66,66,-15610,-153342,-7089043.489,0.020379,0.040187,-0.001128,-34948.62669,-0.050391,0,0,0,0.470599,-0.050391
57.687527,11.979804,-0.359046,-0.001833,-0.092241,0,3,9760415,4.34,66,66,66,-15475,-153020,-7089043.489,0.019939,0.03999,-0.001145,-34636.64148,-0.050566,0,0,0,0.470497,-0.050566
57.687527,11.979804,-0.359046,-0.001833,-0.092241,0,3,9760425,4.35,66,66,66,-15342,-152700,-7089043.489,0.020495,0.040257,-0.001144,-34327.44112,-0.049929,0,0,0,0.470868,-0.049929
57.687527,11.979804,-0.357849,-0.005498,-0.088728,0,3,9760435,4.36,66,66,66,-15209,-152383,-7089043.489,0.020063,0.040088,-0.00113,-34021.00073,-0.050752,0,0,0,0.470388,-0.050752
57.687527,11.979804,-0.357849,-0.005498,-0.088728,0,3,9760445,4.37,66,66,66,-15078,-152070,-7089043.489,0.020478,0.040151,-0.001123,-33717.2957,-0.050151,0,0,0,0.470739,-0.050151
57.687527,11.979804,-0.348275,-0.009163,-0.092241,0,3,9760455,4.38,66,66,66,-14948,-151759,-7089043.489,0.019815,0.03989,-0.001111,-33416.30159,-0.050628,0,0,0,0.47046,-0.050628
57.687527,11.979804,-0.348275,-0.009163,-0.092241,0,3,9760465,4.39,66,66,66,-14819,-151450,-7089043.489,0.020031,0.03969,-0.001131,-33117.99422,-0.049705,0,0,0,0.470999,-0.049705
57.687527,11.979804,-0.349471,-0.009468,-0.089339,0,3,9760475,4.4,66,66,66,-14691,-151145,-7089043.489,0.020872,0.039956,-0.001142,-32822.3496,-0.049721,0,0,0,0.47099,-0.049721
57.687527,11.979804,-0.349471,-0.009468,-0.089339,0,3,9760485,4.41,66,66,66,-14564,-150842,-7089043.489,0.020313,0.039696,-0.001138,-32529.34397,-0.050827,0,0,0,0.470344,-0.050827
57.687527,11.979804,-0.347078,-0.006872,-0.088881,0,3,9760495,4.42,66,66,66,-14438,-150542,-7089043.489,0.020126,0.039398,-0.001143,-32238.95376,-0.050009,0,0,0,0.470822,-0.050009
57.687527,11.979804,-0.347078,-0.006872,-0.088881,0,3,9760505,4.43,66,66,66,-14314,-150245,-7089043.489,0.020021,0.039315,-0.001128,-31951.15563,-0.049524,0,0,0,0.471105,-0.049524
57.687527,11.979804,-0.341094,-0.00168,-0.090255,0,3,9760515,4.44,66,66,66,-14190,-149950,-7089043.489,0.020748,0.039461,-0.001118,-31665.92645,-0.049336,0,0,0,0.471214,-0.049336
57.687527,11.979804,-0.366227,-0.003512,-0.087812,0,3,9760525,4.45,66,66,66,-14068,-149658,-7089043.489,0.019928,0.039535,-0.001129,-31383.24328,-0.050209,0,0,0,0.470705,-0.050209
57.687527,11.979804,-0.366227,-0.003512,-0.094226,0,3,9760535,4.46,66,66,66,-13947,-149368,-7089043.489,0.020744,0.039826,-0.001113,-31103.08339,-0.049463,0,0,0,0.47114,-0.049463
57.687527,11.979804,-0.359046,-0.00504,-0.095753,0,3,9760545,4.47,66,66,66,-13826,-149082,-7089043.489,0.020942,0.040049,-0.001144,-30825.42427,-0.05057,0,0,0,0.470494,-0.05057
57.687527,11.979804,-0.360243,-0.004581,-0.091477,0,3,9760555,4.48,66,66,66,-13707,-148797,-7089043.49,0.020716,0.040096,-0.001168,-30550.24359,-0.050991,0,0,0,0.470248,-0.050991
57.687527,11.979804,-0.360243,-0.004581,-0.091477,0,3,9760565,4.49,66,66,66,-13589,-148516,-7089043.49,0.020717,0.040191,-0.001157,-30277.51923,-0.050812,0,0,0,0.470353,-0.050812
57.687527,11.979804,-0.344684,-0.002749,-0.093462,0,3,9760575,4.5,66,66,66,-13472,-148236,-7089043.49,0.020018,0.040309,-0.001166,-30007.22926,-0.050908,0,0,0,0.470297,-0.050908
57.687527,11.979804,-0.351865,-0.003207,-0.092393,0,3,9760585,4.51,66,66,66,-13356,-147960,-7089043.49,0.019966,0.040354,-0.001163,-29739.35195,-0.050327,0,0,0,0.470636,-0.050327
57.687527,11.979804,-0.33511,-0.004123,-0.091477,0,3,9760595,4.52,66,66,66,-13241,-147685,-7089043.49,0.02024,0.040454,-0.001155,-29473.86577,-0.05032,0,0,0,0.47064,-0.05032
57.687527,11.979804,-0.339897,-0.004276,-0.092393,0,3,9760605,4.53,66,66,66,-13127,-147413,-7089043.49,0.019644,0.040311,-0.001153,-29210.74937,-0.050694,0,0,0,0.470422,-0.050694
57.687527,11.979804,-0.339897,-0.005803,-0.087354,0,3,9760615,4.54,66,66,66,-13014,-147144,-7089043.49,0.019694,0.04025,-0.00115,-28949.9816,-0.049955,0,0,0,0.470853,-0.049955
57.687527,11.979804,-0.349471,-0.004887,-0.094837,0,3,9760625,4.55,66,66,66,-12903,-146877,-7089043.49,0.019699,0.04012,-0.001126,-28691.54149,-0.049944,0,0,0,0.470859,-0.049944
57.687527,11.979804,-0.356652,-0.006261,-0.091324,0,3,9760635,4.56,66,66,66,-12792,-146612,-7089043.49,0.020079,0.040135,-0.001149,-28435.40828,-0.050214,0,0,0,0.470702,-0.050214
57.687527,11.979804,-0.363833,-0.005498,-0.096211,0,3,9760645,4.57,66,66,66,-12682,-146350,-7089043.49,0.020437,0.040141,-0.001144,-28181.56136,-0.050578,0,0,0,0.47049,-0.050578
57.687527,11.979804,-0.363833,-0.005498,-0.096211,0,3,9760655,4.58,66,66,66,-12573,-146090,-7089043.49,0.0208,0.040236,-0.001166,-27929.98033,-0.051037,0,0,0,0.470222,-0.051037
57.687527,11.979804,-0.331519,-0.006261,-0.089492,0,3,9760665,4.59,66,66,66,-12465,-145833,-7089043.49,0.01961,0.039934,-0.001152,-27680.64496,-0.049543,0,0,0,0.471093,-0.049543
57.687527,11.979804,-0.360243,-0.005192,-0.09499,0,3,9760675,4.6,66,66,66,-12358,-145577,-7089043.49,0.020465,0.040064,-0.001158,-27433.5352,-0.050529,0,0,0,0.470518,-0.050529
57.687527,11.979804,-0.368621,-0.009163,-0.092241,0,3,9760685,4.61,66,66,66,-12251,-145324,-7089043.49,0.020987,0.040035,-0.001153,-27188.6312,-0.051022,0,0,0,0.470231,-0.051022
57.687527,11.979804,-0.354259,-0.001527,-0.095906,0,3,9760695,4.62,66,66,66,-12146,-145074,-7089043.49,0.020538,0.040203,-0.001173,-26945.91327,-0.050742,0,0,0,0.470394,-0.050742
57.687527,11.979804,-0.355456,-0.00733,-0.092546,0,3,9760705,4.63,66,66,66,-12042,-144825,-7089043.49,0.020495,0.040114,-0.001164,-26705.36188,-0.050608,0,0,0,0.470472,-0.050608
57.687527,11.979804,-0.357849,-0.003818,-0.090561,0,3,9760715,4.64,66,66,66,-11939,-144579,-7089043.49,0.020575,0.040234,-0.001149,-26466.9577,-0.050809,0,0,0,0.470355,-0.050809
57.687527,11.979804,-0.36144,-0.007636,-0.092241,0,3,9760725,4.65,66,66,66,-11836,-144335,-7089043.49,0.02074,0.040188,-0.001152,-26230.68156,-0.050929,0,0,0,0.470285,-0.050929
57.687527,11.979804,-0.357849,-0.008552,-0.090255,0,3,9760735,4.66,66,66,66,-11735,-144093,-7089043.49,0.020631,0.040056,-0.001145,-25996.51447,-0.050686,0,0,0,0.470427,-0.050686
57.687526,11.979805,-0.303992,-0.004276,-0.094531,0,3,9760745,4.67,88,88,88,-9988,-52298,-7218419.218,0.018477,0.039575,-0.001169,-44342.91971,-0.048051,0,0,0,0.471964,-0.048051
57.687526,11.979805,-0.369817,-0.005498,-0.093615,0,3,9760755,4.68,88,88,88,-10347,-52038,-7218419.218,0.020572,0.039875,-0.001147,-43947.07916,-0.050446,0,0,0,0.470566,-0.050446
57.687526,11.979805,-0.296811,-0.005803,-0.08995,0,3,9760765,4.69,88,88,88,-10703,-51780,-7218419.218,0.018167,0.03926,-0.001148,-43554.77196,-0.047427,0,0,0,0.472328,-0.047427
57.687526,11.979805,-0.382982,-0.007636,-0.098502,0,3,9760775,4.7,88,88,88,-11055,-51524,-7218419.218,0.021002,0.039623,-0.001156,-43165.96658,-0.050625,0,0,0,0.470462,-0.050625
57.687526,11.979805,-0.348275,-0.00168,-0.090866,0,3,9760785,4.71,88,88,88,-11405,-51271,-7218419.218,0.020278,0.039749,-0.00115,-42780.63175,-0.050028,0,0,0,0.470811,-0.050028
57.687526,11.979805,-0.343487,-0.002138,-0.09499,0,3,9760795,4.72,88,88,88,-11751,-51020,-7218419.218,0.01994,0.039829,-0.001163,-42398.73649,-0.049769,0,0,0,0.470962,-0.049769
57.687526,11.979805,-0.381786,-0.002138,-0.087506,0,3,9760805,4.73,88,88,88,-12094,-50771,-7218419.218,0.021381,0.040336,-0.001125,-42020.25011,-0.051717,0,0,0,0.469825,-0.051717
57.687526,11.979805,-0.363833,-0.005345,-0.092852,0,3,9760815,4.74,88,88,88,-12435,-50524,-7218419.218,0.021018,0.04038,-0.00115,-41645.14218,-0.051399,0,0,0,0.470011,-0.051399
57.687526,11.979805,-0.410509,-0.00733,-0.090561,0,3,9760825,4.75,88,88,88,-12772,-50279,-7218419.218,0.022782,0.040839,-0.001141,-41273.38253,-0.051399,0,0,0,0.470011,-0.051399
57.687526,11.979805,-0.363833,-0.004581,-0.088728,0,3,9760835,4.76,88,88,88,-13106,-50037,-7218419.218,0.021215,0.040835,-0.00114,-40904.94129,-0.05205,0,0,0,0.469631,-0.05205
57.687526,11.979805,-0.362636,-0.003054,-0.08995,0,3,9760845,4.77,88,88,88,-13437,-49797,-7218419.218,0.020968,0.040964,-0.001144,-40539.78882,-0.051932,0,0,0,0.4697,-0.051932
57.687526,11.979805,-0.330322,-0.004429,-0.093768,0,3,9760855,4.78,88,88,88,-13765,-49559,-7218419.218,0.019648,0.040683,-0.001167,-40177.89578,-0.050331,0,0,0,0.470634,-0.050331
57.687526,11.979805,-0.314764,-0.007483,-0.096059,0,3,9760865,4.79,88,88,88,-14090,-49323,-7218419.218,0.018726,0.040171,-0.00118,-39819.23307,-0.048897,0,0,0,0.47147,-0.048897
57.687526,11.979805,-0.324338,-0.00901,-0.099724,0,3,9760875,4.8,88,88,88,-14413,-49089,-7218419.218,0.018869,0.03976,-0.001193,-39463.77185,-0.04863,0,0,0,0.471626,-0.04863
57.687526,11.979805,-0.336306,-0.007025,-0.101251,0,3,9760886,4.811,88,88,88,-14732,-48857,-7218419.218,0.018215,0.039391,-0.00118,-39111.48355,-0.04863,0,0,0,0.471626,-0.04863
57.687526,11.979805,-0.336306,-0.007025,-0.101251,0,3,9760895,4.82,88,88,88,-15049,-48628,-7218419.218,0.019246,0.03927,-0.001195,-38762.33985,-0.048516,0,0,0,0.471693,-0.048516
57.687526,11.979805,-0.426068,-0.004581,-0.094073,0,3,9760905,4.83,88,88,88,-15362,-48400,-7218419.218,0.02294,0.040187,-0.001156,-38416.31267,-0.053127,0,0,0,0.469002,-0.053127
57.687526,11.979805,-0.397344,-0.001222,-0.095753,0,3,9760915,4.84,88,88,88,-15673,-48174,-7218419.218,0.022675,0.040713,-0.001182,-38073.3742,-0.053388,0,0,0,0.46885,-0.053388
57.687526,11.979805,-0.4141,-0.000916,-0.092546,0,3,9760925,4.85,88,88,88,-15981,-47951,-7218419.218,0.023312,0.041419,-0.001175,-37733.49687,-0.054731,0,0,0,0.468067,-0.054731
57.687526,11.979805,-0.396147,-0.003207,-0.092241,0,3,9760935,4.86,88,88,88,-16287,-47729,-7218419.218,0.022787,0.041745,-0.001182,-37396.65335,-0.054532,0,0,0,0.468183,-0.054532
57.687526,11.979805,-0.350668,-0.00672,-0.08491,0,3,9760945,4.87,88,88,88,-16589,-47509,-7218419.218,0.020895,0.041432,-0.001155,-37062.81657,-0.052327,0,0,0,0.469469,-0.052327
57.687526,11.979805,-0.349471,-0.005803,-0.087048,0,3,9760955,4.88,88,88,88,-16889,-47292,-7218419.219,0.020416,0.041269,-0.001138,-36731.95968,-0.051685,0,0,0,0.469844,-0.051685
57.687526,11.979805,-0.295615,-0.008552,-0.088117,0,3,9760965,4.89,88,88,88,-17187,-47076,-7218419.219,0.018174,0.040434,-0.001141,-36404.05608,-0.048608,0,0,0,0.471639,-0.048608
57.687526,11.979805,-0.341094,-0.010079,-0.08995,0,3,9760975,4.9,88,88,88,-17481,-46862,-7218419.219,0.019424,0.040172,-0.001124,-36079.07942,-0.049595,0,0,0,0.471063,-0.049595
57.687526,11.979805,-0.445217,-0.008094,-0.090103,0,3,9760985,4.91,88,88,88,-17773,-46650,-7218419.219,0.023789,0.041058,-0.00111,-35757.00356,-0.054847,0,0,0,0.467999,-0.054847
57.687526,11.979805,-0.452398,0.00168,-0.086437,0,3,9760995,4.92,88,88,88,-18062,-46440,-7218419.219,0.025088,0.042224,-0.001119,-35437.80261,-0.057312,0,0,0,0.466561,-0.057312
57.687526,11.979805,-0.393754,0.003054,-0.095142,0,3,9761005,4.93,88,88,88,-18349,-46232,-7218419.219,0.023136,0.042691,-0.001187,-35121.45092,-0.055827,0,0,0,0.467427,-0.055827
57.687526,11.979805,-0.458382,0,-0.101709,0,3,9761015,4.94,88,88,88,-18633,-46025,-7218419.219,0.025289,0.043761,-0.001226,-34807.92305,-0.05905,0,0,0,0.465547,-0.05905
57.687526,11.979805,-0.265694,-0.001527,-0.093615,0,3,9761025,4.95,88,88,88,-18915,-45821,-7218419.219,0.018225,0.042545,-0.001254,-34497.19379,-0.05077,0,0,0,0.470378,-0.05077
57.687526,11.979805,-0.329125,-0.009621,-0.098349,0,3,9761035,4.96,88,88,88,-19194,-45618,-7218419.219,0.019102,0.042044,-0.001223,-34189.23816,-0.051146,0,0,0,0.470158,-0.051146
57.687526,11.979805,-0.320748,-0.011912,-0.101098,0,3,9761045,4.97,88,88,88,-19471,-45417,-7218419.219,0.01893,0.041319,-0.001229,-33884.0314,-0.050249,0,0,0,0.470682,-0.050249
57.687526,11.979805,-0.299205,-0.002749,-0.095295,0,3,9761055,4.98,88,88,88,-19745,-45218,-7218419.219,0.018,0.040881,-0.001202,-33581.54898,-0.048881,0,0,0,0.47148,-0.048881
57.687526,11.979805,-0.329125,-0.006109,-0.099876,0,3,9761065,4.99,88,88,88,-20017,-45021,-7218419.219,0.018948,0.040663,-0.001199,-33281.76658,-0.04961,0,0,0,0.471054,-0.04961
57.687526,11.979805,-0.198672,-0.01237,-0.097586,0,3,9761075,5,88,88,88,-20286,-44825,-7218419.219,0.013989,0.038716,-0.001214,-32984.6601,-0.042705,0,0,0,0.475083,-0.042705
57.687526,11.979805,-0.205853,-0.012065,-0.099418,0,3,9761085,5.01,88,88,88,-20553,-44631,-7218419.219,0.013065,0.037239,-0.001184,-32690.20564,-0.040304,0,0,0,0.476484,-0.040304
57.687526,11.979805,-0.118485,-0.015272,-0.103847,0,3,9761095,5.02,88,88,88,-20817,-44439,-7218419.219,0.009319,0.03481,-0.001193,-32398.37955,-0.034129,0,0,0,0.480087,-0.034129
57.687526,11.979805,-0.168752,-0.014203,-0.098807,0,3,9761105,5.03,88,88,88,-21079,-44249,-7218419.219,0.010327,0.033314,-0.001127,-32109.15836,-0.033642,0,0,0,0.480371,-0.033642
57.687526,11.979805,-0.10532,-0.011454,-0.089492,0,3,9761115,5.04,88,88,88,-21339,-44060,-7218419.219,0.007948,0.031328,-0.001065,-31822.51881,-0.029275,0,0,0,0.482919,-0.029275
57.687526,11.979805,-0.225002,-0.013592,-0.091172,0,3,9761125,5.05,88,88,88,-21597,-43873,-7218419.219,0.01202,0.030743,-0.001003,-31538.43786,-0.032763,0,0,0,0.480884,-0.032763
57.687526,11.979805,-0.222609,-0.017562,-0.089034,0,3,9761135,5.06,88,88,88,-21852,-43687,-7218419.219,0.012773,0.029753,-0.000995,-31256.89268,-0.032526,0,0,0,0.481022,-0.032526
57.687526,11.979805,-0.196278,-0.024282,-0.085368,0,3,9761145,5.07,88,88,88,-22105,-43504,-7218419.219,0.01183,0.028171,-0.000981,-30977.86063,-0.03,0,0,0,0.482496,-0.03
57.687526,11.979805,-0.171145,-0.028711,-0.085827,0,3,9761155,5.08,88,88,88,-22355,-43322,-7218419.219,0.010527,0.026245,-0.000968,-30701.31927,-0.026772,0,0,0,0.48438,-0.026772
57.687526,11.979805,-0.219018,-0.032681,-0.079412,0,3,9761165,5.09,88,88,88,-22603,-43141,-7218419.219,0.012003,0.024817,-0.000908,-30427.24638,-0.026821,0,0,0,0.484351,-0.026821
57.687526,11.979805,-0.155587,-0.02978,-0.07926,0,3,9761175,5.1,88,88,88,-22850,-42962,-7218419.219,0.009732,0.022867,-0.000895,-30155.61991,-0.022599,0,0,0,0.486814,-0.022599
57.687526,11.979805,-0.175933,-0.027031,-0.083536,0,3,9761185,5.11,88,88,88,-23093,-42785,-7218419.219,0.009915,0.021501,-0.000882,-29886.41804,-0.021416,0,0,0,0.487504,-0.021416
57.687526,11.979805,-0.177129,-0.026725,-0.083078,0,3,9761195,5.12,88,88,88,-23335,-42609,-7218419.219,0.009914,0.020234,-0.00087,-29619.61911,-0.020147,0,0,0,0.488245,-0.020147
57.687526,11.979805,-0.250135,-0.03207,-0.087812,0,3,9761205,5.13,88,88,88,-23575,-42435,-7218419.219,0.012709,0.019542,-0.000871,-29355.20169,-0.022251,0,0,0,0.487017,-0.022251
57.687526,11.979805,-0.258513,-0.032529,-0.090713,0,3,9761215,5.14,88,88,88,-23812,-42262,-7218419.219,0.013606,0.018803,-0.000902,-29093.14451,-0.022409,0,0,0,0.486925,-0.022409
57.687526,11.979805,-0.290827,-0.04047,-0.091935,0,3,9761225,5.15,88,88,88,-24048,-42091,-7218419.219,0.015024,0.018005,-0.000921,-28833.42651,-0.023029,0,0,0,0.486564,-0.023029
57.687526,11.979805,-0.274072,-0.040164,-0.091935,0,3,9761235,5.16,88,88,88,-24281,-41922,-7218419.219,0.014622,0.017015,-0.000938,-28576.0268,-0.021636,0,0,0,0.487376,-0.021636
57.687526,11.979805,-0.357849,-0.039095,-0.092393,0,3,9761245,5.17,88,88,88,-24512,-41754,-7218419.219,0.017776,0.017044,-0.000928,-28320.92469,-0.02482,0,0,0,0.485519,-0.02482
57.687526,11.979805,-0.445217,-0.038332,-0.085979,0,3,9761255,5.18,88,88,88,-24741,-41587,-7218419.219,0.021913,0.017871,-0.000903,-28068.09967,-0.029783,0,0,0,0.482622,-0.029783
57.687526,11.979805,-0.536175,-0.031001,-0.07758,0,3,9761265,5.19,88,88,88,-24968,-41422,-7218419.219,0.026461,0.019763,-0.000871,-27817.53142,-0.036224,0,0,0,0.478865,-0.036224
57.687526,11.979805,-0.588835,-0.027031,-0.070402,0,3,9761275,5.2,88,88,88,-25193,-41258,-7218419.219,0.029655,0.022063,-0.000855,-27569.19979,-0.041718,0,0,0,0.475659,-0.041718
57.687526,11.979805,-0.590032,-0.029322,-0.07086,0,3,9761285,5.21,88,88,88,-25416,-41096,-7218419.219,0.030546,0.023954,-0.000884,-27323.08482,-0.0445,0,0,0,0.474036,-0.0445
57.687526,11.979805,-0.569686,-0.028253,-0.069333,0,3,9761295,5.22,88,88,88,-25637,-40935,-7218419.219,0.030061,0.025526,-0.000906,-27079.16672,-0.045588,0,0,0,0.473401,-0.045588
57.687526,11.979805,-0.515829,-0.023518,-0.077427,0,3,9761305,5.23,88,88,88,-25856,-40776,-7218419.219,0.027937,0.02669,-0.000965,-26837.42589,-0.044627,0,0,0,0.473962,-0.044627
57.687526,11.979805,-0.482318,-0.029932,-0.080023,0,3,9761315,5.24,88,88,88,-26073,-40618,-7218419.219,0.026223,0.027223,-0.000997,-26597.84288,-0.043446,0,0,0,0.474651,-0.043446
57.687526,11.979805,-0.379392,-0.036499,-0.085368,0,3,9761325,5.25,88,88,88,-26288,-40462,-7218419.22,0.02182,0.026395,-0.001043,-26360.39843,-0.038215,0,0,0,0.477703,-0.038215
57.687526,11.979805,-0.359046,-0.033139,-0.096211,0,3,9761335,5.26,88,88,88,-26501,-40307,-7218419.22,0.020007,0.025794,-0.001081,-26125.07347,-0.0358,0,0,0,0.479112,-0.0358
57.687526,11.979805,-0.325535,-0.034667,-0.107818,0,3,9761345,5.27,88,88,88,-26712,-40153,-7218419.22,0.018251,0.024882,-0.001142,-25891.84906,-0.033133,0,0,0,0.480668,-0.033133
57.687526,11.979805,-0.318354,-0.031307,-0.11301,0,3,9761355,5.28,88,88,88,-26922,-40001,-7218419.22,0.01753,0.024204,-0.001177,-25660.70646,-0.031734,0,0,0,0.481485,-0.031734
57.687526,11.979805,-0.331519,-0.03146,-0.122937,0,3,9761365,5.29,88,88,88,-27129,-39850,-7218419.22,0.01785,0.023726,-0.001229,-25431.62708,-0.031576,0,0,0,0.481577,-0.031576
57.687526,11.979805,-0.355456,-0.034056,-0.12034,0,3,9761375,5.3,88,88,88,-27335,-39700,-7218419.22,0.018832,0.023386,-0.001235,-25204.59251,-0.032218,0,0,0,0.481202,-0.032218
57.687526,11.979805,-0.399738,-0.036805,-0.113774,0,3,9761385,5.31,88,88,88,-27539,-39552,-7218419.22,0.020768,0.023351,-0.001206,-24979.5845,-0.03412,0,0,0,0.480092,-0.03412
57.687526,11.979805,-0.375801,-0.041539,-0.10736,0,3,9761395,5.32,88,88,88,-27741,-39405,-7218419.22,0.02024,0.022732,-0.001182,-24756.58495,-0.032973,0,0,0,0.480762,-0.032973
57.687526,11.979805,-0.320748,-0.037415,-0.101862,0,3,9761405,5.33,88,88,88,-27941,-39259,-7218419.22,0.017914,0.021806,-0.001147,-24535.57595,-0.029721,0,0,0,0.482659,-0.029721
57.687526,11.979805,-0.339897,-0.039095,-0.089492,0,3,9761415,5.34,88,88,88,-28139,-39115,-7218419.22,0.018099,0.021191,-0.001049,-24316.53971,-0.02929,0,0,0,0.48291,-0.02929
57.687526,11.979805,-0.354259,-0.044746,-0.07926,0,3,9761425,5.35,88,88,88,-28336,-38972,-7218419.22,0.018659,0.020484,-0.000957,-24099.45863,-0.029143,0,0,0,0.482996,-0.029143
57.687526,11.979805,-0.374605,-0.032529,-0.071929,0,3,9761435,5.36,88,88,88,-28531,-38830,-7218419.22,0.019544,0.020618,-0.000879,-23884.31527,-0.030162,0,0,0,0.482402,-0.030162
57.687526,11.979805,-0.422477,-0.028863,-0.064904,0,3,9761445,5.37,88,88,88,-28724,-38689,-7218419.22,0.021634,0.021394,-0.000811,-23671.09231,-0.033028,0,0,0,0.480729,-0.033028
57.687526,11.979805,-0.509845,-0.024587,-0.058032,0,3,9761455,5.38,88,88,88,-28915,-38550,-7218419.22,0.025589,0.023156,-0.000755,-23459.77263,-0.038744,0,0,0,0.477394,-0.038744
57.687526,11.979805,-0.534979,-0.022602,-0.060323,0,3,9761465,5.39,88,88,88,-29105,-38412,-7218419.22,0.027558,0.024964,-0.000773,-23250.33923,-0.042523,0,0,0,0.47519,-0.042523
57.687526,11.979805,-0.579261,-0.027031,-0.061087,0,3,9761475,5.4,88,88,88,-29293,-38275,-7218419.22,0.02985,0.026809,-0.000801,-23042.77527,-0.046658,0,0,0,0.472777,-0.046658
57.687526,11.979805,-0.574474,-0.029016,-0.073304,0,3,9761485,5.41,88,88,88,-29479,-38140,-7218419.22,0.030281,0.028259,-0.000896,-22837.06407,-0.048541,0,0,0,0.471678,-0.048541
57.687526,11.979805,-0.57567,-0.028863,-0.117133,0,3,9761495,5.42,88,88,88,-29664,-38005,-7218419.22,0.030525,0.029577,-0.001154,-22633.18909,-0.050102,0,0,0,0.470767,-0.050102
57.687526,11.979805,-0.57567,-0.034819,-0.087965,0,3,9761505,5.43,88,88,88,-29847,-37872,-7218419.22,0.030658,0.030539,-0.001133,-22431.13394,-0.051197,0,0,0,0.470128,-0.051197
57.687526,11.979805,-0.562505,-0.035277,-0.100487,0,3,9761515,5.44,88,88,88,-30028,-37740,-7218419.22,0.030232,0.031262,-0.001191,-22230.88238,-0.051493,0,0,0,0.469956,-0.051493
57.687526,11.979805,-0.539766,-0.034208,-0.103542,0,3,9761525,5.45,88,88,88,-30208,-37609,-7218419.22,0.02929,0.031775,-0.001233,-22032.4183,-0.051065,0,0,0,0.470206,-0.051065
57.687526,11.979805,-0.54575,-0.034208,-0.114995,0,3,9761535,5.46,88,88,88,-30386,-37479,-7218419.22,0.029356,0.03236,-0.0013,-21835.72575,-0.051716,0,0,0,0.469825,-0.051716
57.687526,11.979805,-0.578064,-0.026878,-0.109956,0,3,9761545,5.47,88,88,88,-30562,-37351,-7218419.22,0.030688,0.03362,-0.001301,-21640.78891,-0.054308,0,0,0,0.468313,-0.054308
57.687526,11.979805,-0.590032,-0.029169,-0.112094,0,3,9761555,5.48,88,88,88,-30737,-37223,-7218419.22,0.031531,0.034745,-0.001326,-21447.59212,-0.056276,0,0,0,0.467165,-0.056276
57.687526,11.979805,-0.617559,-0.026878,-0.106291,0,3,9761565,5.49,88,88,88,-30911,-37097,-7218419.22,0.032875,0.03617,-0.001315,-21256.11985,-0.059045,0,0,0,0.465549,-0.059045
57.687526,11.979805,-0.591229,-0.028405,-0.102014,0,3,9761575,5.5,88,88,88,-31082,-36972,-7218419.22,0.03222,0.037089,-0.00131,-21066.35669,-0.059309,0,0,0,0.465395,-0.059309
57.687526,11.979805,-0.574474,-0.024129,-0.094073,0,3,9761585,5.51,88,88,88,-31253,-36848,-7218419.22,0.031476,0.038034,-0.001271,-20878.2874,-0.05951,0,0,0,0.465278,-0.05951
57.687526,11.979805,-0.563702,-0.021075,-0.085063,0,3,9761595,5.52,88,88,88,-31421,-36725,-7218419.22,0.03095,0.039011,-0.001211,-20691.89685,-0.059961,0,0,0,0.465015,-0.059961
57.687526,11.979805,-0.54575,-0.01909,-0.078954,0,3,9761605,5.53,88,88,88,-31589,-36603,-7218419.22,0.030189,0.039874,-0.001159,-20507.17006,-0.060063,0,0,0,0.464956,-0.060063
57.687526,11.979805,-0.491893,-0.016646,-0.076358,0,3,9761615,5.54,88,88,88,-31754,-36482,-7218419.22,0.027955,0.040281,-0.001131,-20324.09218,-0.058236,0,0,0,0.466022,-0.058236
57.687526,11.979805,-0.434446,-0.009316,-0.076358,0,3,9761625,5.55,88,88,88,-31919,-36363,-7218419.22,0.025231,0.040542,-0.001112,-20142.64849,-0.055773,0,0,0,0.467459,-0.055773
57.687526,11.979805,-0.478728,-0.009316,-0.078343,0,3,9761635,5.56,88,88,88,-32081,-36244,-7218419.22,0.0264,0.0414,-0.001087,-19962.82441,-0.0578,0,0,0,0.466276,-0.0578
57.687526,11.979805,-0.531388,-0.009468,-0.076053,0,3,9761645,5.57,88,88,88,-32243,-36126,-7218419.22,0.028788,0.042698,-0.00107,-19784.60547,-0.061485,0,0,0,0.464126,-0.061485
57.687526,11.979805,-0.521814,-0.009621,-0.082772,0,3,9761655,5.58,88,88,88,-32403,-36010,-7218419.22,0.029016,0.043675,-0.00112,-19607.97734,-0.06269,0,0,0,0.463423,-0.06269
57.687526,11.979805,-0.596016,-0.006109,-0.087354,0,3,9761665,5.59,88,88,88,-32561,-35894,-7218419.22,0.03206,0.045538,-0.001156,-19432.92584,-0.067598,0,0,0,0.460559,-0.067598
57.687526,11.979805,-0.625937,-0.011759,-0.091477,0,3,9761675,5.6,88,88,88,-32718,-35780,-7218419.221,0.034023,0.047159,-0.001218,-19259.43687,-0.071182,0,0,0,0.458468,-0.071182
57.687526,11.979805,-0.652267,-0.009927,-0.091935,0,3,9761685,5.61,88,88,88,-32874,-35666,-7218419.221,0.035597,0.04895,-0.001263,-19087.49651,-0.074547,0,0,0,0.456505,-0.074547
57.687526,11.979805,-0.666629,-0.008858,-0.097433,0,3,9761695,5.62,88,88,88,-33028,-35554,-7218419.221,0.036625,0.050751,-0.001325,-18917.09092,-0.077376,0,0,0,0.454854,-0.077376
57.687526,11.979805,-0.639102,-0.003665,-0.094837,0,3,9761705,5.63,88,88,88,-33181,-35443,-7218419.221,0.035884,0.052361,-0.001357,-18748.2064,-0.078244,0,0,0,0.454347,-0.078244
57.687526,11.979805,-0.697746,-0.002138,-0.094073,0,3,9761715,5.64,88,88,88,-33332,-35332,-7218419.221,0.038141,0.054614,-0.001359,-18580.82939,-0.082755,0,0,0,0.451716,-0.082755
57.687526,11.979805,-0.720486,-0.002749,-0.092393,0,3,9761725,5.65,88,88,88,-33482,-35223,-7218419.221,0.039676,0.056826,-0.001375,-18414.94641,-0.086502,0,0,0,0.44953,-0.086502
57.687526,11.979805,-0.666629,0.003207,-0.095142,0,3,9761735,5.66,88,88,88,-33631,-35114,-7218419.221,0.038033,0.05855,-0.001422,-18250.54413,-0.086583,0,0,0,0.449482,-0.086583
57.687526,11.979807,-0.679794,0.004123,-0.091935,0,3,9761745,5.67,110,110,110,-9002,-8059,-7079652.071,0.038306,0.060449,-0.00142,-17183.91493,-0.088755,0,0,0,0.448215,-0.088755
57.687526,11.979807,-0.740832,0.01069,-0.091019,0,3,9761755,5.68,110,110,110,-8879,-8179,-7079652.071,0.0409,0.063197,-0.001415,-17030.50109,-0.094097,0,0,0,0.445098,-0.094097
57.687526,11.979807,-0.767162,0.015424,-0.079107,0,3,9761765,5.69,110,110,110,-8756,-8298,-7079652.071,0.042684,0.066171,-0.001381,-16878.45665,-0.098855,0,0,0,0.442322,-0.098855
57.687526,11.979807,-0.764768,0.015882,-0.085368,0,3,9761775,5.7,110,110,110,-8635,-8415,-7079652.071,0.043172,0.068866,-0.001423,-16727.76939,-0.102038,0,0,0,0.440465,-0.102038
57.687526,11.979807,-0.758784,0.021686,-0.078649,0,3,9761785,5.71,110,110,110,-8515,-8532,-7079652.072,0.04322,0.07161,-0.001423,-16578.4272,-0.104829,0,0,0,0.438836,-0.104829
57.687526,11.979807,-0.740832,0.028558,-0.08262,0,3,9761795,5.72,110,110,110,-8396,-8647,-7079652.072,0.042704,0.074338,-0.001456,-16430.41806,-0.107042,0,0,0,0.437545,-0.107042
57.687526,11.979807,-0.70014,0.025198,-0.086896,0,3,9761805,5.73,110,110,110,-8278,-8761,-7079652.072,0.041161,0.076333,-0.001504,-16283.73009,-0.107494,0,0,0,0.437281,-0.107494
57.687526,11.979807,-0.665432,0.025962,-0.092241,0,3,9761815,5.74,110,110,110,-8161,-8875,-7079652.072,0.039586,0.077958,-0.001552,-16138.35148,-0.107544,0,0,0,0.437252,-0.107544
57.687526,11.979807,-0.643889,0.027947,-0.095906,0,3,9761825,5.75,110,110,110,-8045,-8987,-7079652.072,0.038499,0.079441,-0.001589,-15994.27054,-0.10794,0,0,0,0.437021,-0.10794
57.687526,11.979807,-0.618756,0.029932,-0.105527,0,3,9761835,5.76,110,110,110,-7931,-9098,-7079652.072,0.03737,0.080717,-0.001652,-15851.47571,-0.108087,0,0,0,0.436935,-0.108087
57.687526,11.979807,-0.643889,0.033292,-0.104153,0,3,9761845,5.77,110,110,110,-7817,-9209,-7079652.072,0.0382,0.082415,-0.001665,-15709.95549,-0.110615,0,0,0,0.43546,-0.110615
57.687526,11.979807,-0.655857,0.040775,-0.104153,0,3,9761855,5.78,110,110,110,-7704,-9318,-7079652.072,0.038968,0.084468,-0.00168,-15569.6985,-0.113436,0,0,0,0.433814,-0.113436
57.687526,11.979807,-0.686975,0.041692,-0.102778,0,3,9761865,5.79,110,110,110,-7592,-9427,-7079652.072,0.040496,0.086736,-0.00169,-15430.69348,-0.117233,0,0,0,0.431599,-0.117233
57.687526,11.979807,-0.690565,0.045051,-0.104763,0,3,9761875,5.8,110,110,110,-7482,-9534,-7079652.072,0.041121,0.088993,-0.001723,-15292.92925,-0.120114,0,0,0,0.429918,-0.120114
57.687526,11.979807,-0.635511,0.048106,-0.092393,0,3,9761885,5.81,110,110,110,-7372,-9641,-7079652.072,0.040133,0.091127,-0.001729,-15156.39472,-0.12126,0,0,0,0.429249,-0.12126
57.687526,11.979807,-0.635511,0.048106,-0.092393,0,3,9761895,5.82,110,110,110,-7263,-9746,-7079652.072,0.039153,0.092729,-0.001704,-15021.07893,-0.121882,0,0,0,0.428886,-0.121882
57.687526,11.979807,-0.569686,0.057116,-0.083994,0,3,9761905,5.83,110,110,110,-7155,-9851,-7079652.072,0.038904,0.094538,-0.001668,-14886.971,-0.123442,0,0,0,0.427977,-0.123442
57.687526,11.979807,-0.532585,0.062461,-0.082467,0,3,9761915,5.84,110,110,110,-7049,-9954,-7079652.072,0.036512,0.095766,-0.001652,-14754.06014,-0.122278,0,0,0,0.428655,-0.122278
57.687526,11.979807,-0.530191,0.061697,-0.08659,0,3,9761925,5.85,110,110,110,-6943,-10057,-7079652.072,0.034608,0.096926,-0.001631,-14622.33567,-0.121534,0,0,0,0.429089,-0.121534
57.687526,11.979807,-0.530191,0.061697,-0.08659,0,3,9761935,5.86,110,110,110,-6838,-10159,-7079652.072,0.034173,0.098053,-0.001633,-14491.787,-0.122226,0,0,0,0.428686,-0.122226
57.687526,11.979807,-0.517026,0.065057,-0.08659,0,3,9761945,5.87,110,110,110,-6734,-10260,-7079652.072,0.033633,0.099165,-0.001637,-14362.40363,-0.122799,0,0,0,0.428352,-0.122799
57.687526,11.979807,-0.530191,0.066432,-0.096669,0,3,9761955,5.88,110,110,110,-6631,-10360,-7079652.072,0.034109,0.100439,-0.001685,-14234.17517,-0.124548,0,0,0,0.427331,-0.124548
57.687526,11.979807,-0.536175,0.068417,-0.090255,0,3,9761965,5.89,110,110,110,-6529,-10459,-7079652.072,0.034532,0.101781,-0.001682,-14107.09129,-0.126313,0,0,0,0.426301,-0.126313
57.687526,11.979807,-0.454792,0.070708,-0.099266,0,3,9761975,5.9,110,110,110,-6427,-10557,-7079652.072,0.031504,0.102265,-0.001745,-13981.1418,-0.123769,0,0,0,0.427786,-0.123769
57.687526,11.979807,-0.441627,0.069333,-0.106138,0,3,9761985,5.91,110,110,110,-6327,-10655,-7079652.072,0.030355,0.102669,-0.001786,-13856.31655,-0.123024,0,0,0,0.42822,-0.123024
57.687526,11.979807,-0.33511,0.06353,-0.109039,0,3,9761995,5.92,110,110,110,-6228,-10751,-7079652.072,0.025926,0.101692,-0.001828,-13732.60552,-0.117618,0,0,0,0.431375,-0.117618
57.687526,11.979807,-0.251332,0.061087,-0.11805,0,3,9762005,5.93,110,110,110,-6129,-10847,-7079652.072,0.02159,0.099993,-0.001865,-13609.99876,-0.111583,0,0,0,0.434895,-0.111583
57.687526,11.979807,-0.126863,0.058185,-0.115759,0,3,9762015,5.94,110,110,110,-6032,-10942,-7079652.072,0.015622,0.097167,-0.001851,-13488.48641,-0.111583,0,0,0,0.434895,-0.111583
57.687526,11.979807,-0.136437,0.054825,-0.121257,0,3,9762025,5.95,110,110,110,-5935,-11036,-7079652.073,0.015072,0.094699,-0.00185,-13368.0587,-0.099771,0,0,0,0.441787,-0.099771
57.687526,11.979807,-0.062235,0.056963,-0.114079,0,3,9762035,5.96,110,110,110,-5839,-11129,-7079652.073,0.011306,0.09179,-0.001777,-13248.70596,-0.093096,0,0,0,0.445682,-0.093096
57.687526,11.979807,-0.168752,0.055436,-0.110567,0,3,9762045,5.97,110,110,110,-5744,-11221,-7079652.073,0.014495,0.090309,-0.001674,-13130.41858,-0.094804,0,0,0,0.444685,-0.094804
57.687526,11.979807,-0.130453,0.056658,-0.107207,-0.000028,3,9762055,5.98,110,110,110,-5650,-11313,-7079652.073,0.013584,0.088402,-0.001636,-13013.18706,-0.091986,0,0,0,0.44633,-0.091986
57.687526,11.979807,-0.122076,0.064446,-0.09896,-0.000028,3,9762065,5.99,110,110,110,-5556,-11404,-7079652.073,0.012935,0.086959,-0.001583,-12897.00197,-0.089894,0,0,0,0.44755,-0.089894
57.687526,11.979807,-0.122076,0.058643,-0.091477,-0.000028,3,9762075,6,110,110,110,-5464,-11494,-7079652.073,0.012694,0.085355,-0.001514,-12781.85397,-0.088049,0,0,0,0.448627,-0.088049
57.687526,11.979807,-0.087368,0.052534,-0.084605,-0.000028,3,9762085,6.01,110,110,110,-5372,-11583,-7079652.073,0.011163,0.083193,-0.00145,-12667.73381,-0.084356,0,0,0,0.450781,-0.084356
57.687526,11.979807,0.025133,0.042913,-0.077274,-0.000028,3,9762095,6.02,110,110,110,-5282,-11671,-7079652.073,0.006242,0.079578,-0.001387,-12554.63231,-0.07582,0,0,0,0.455762,-0.07582
57.687526,11.979807,0.076596,0.036194,-0.081245,-0.000028,3,9762105,6.03,110,110,110,-5192,-11758,-7079652.073,0.002899,0.075555,-0.001336,-12442.54037,-0.068455,0,0,0,0.460059,-0.068455
57.687526,11.979807,0.081384,0.035736,-0.086285,-0.000028,3,9762115,6.04,110,110,110,-5102,-11845,-7079652.073,0.001721,0.071869,-0.001299,-12331.44899,-0.06359,0,0,0,0.462898,-0.06359
57.687526,11.979807,0.089762,0.033598,-0.083994,-0.000028,3,9762125,6.05,110,110,110,-5014,-11931,-7079652.073,0.000892,0.068269,-0.001249,-12221.34923,-0.059162,0,0,0,0.465481,-0.059162
57.687526,11.979807,0.025133,0.030696,-0.091935,-0.000028,3,9762135,6.06,110,110,110,-4926,-12016,-7079652.073,0.003028,0.065456,-0.001236,-12112.23224,-0.059162,0,0,0,0.465481,-0.059162
57.687526,11.979807,-0.055054,0.036957,-0.09163,-0.000028,3,9762145,6.07,110,110,110,-4839,-12101,-7079652.073,0.00648,0.063853,-0.001219,-12004.08925,-0.058484,0,0,0,0.465877,-0.058484
57.687526,11.979807,-0.124469,0.034361,-0.087965,-0.000028,3,9762155,6.08,110,110,110,-4753,-12184,-7079652.073,0.009866,0.062767,-0.001203,-11896.91157,-0.060333,0,0,0,0.464798,-0.060333
57.687526,11.979807,-0.262104,0.0281,-0.086437,-0.000028,3,9762165,6.09,110,110,110,-4668,-12267,-7079652.073,0.015961,0.06271,-0.001189,-11790.69058,-0.062633,0,0,0,0.463456,-0.062633
57.687526,11.979807,-0.353062,0.03207,-0.082009,-0.000028,3,9762175,6.1,110,110,110,-4584,-12350,-7079652.073,0.020878,0.063492,-0.001192,-11685.41774,-0.068671,0,0,0,0.459933,-0.068671
57.687526,11.979807,-0.353062,0.026573,-0.073304,-0.000028,3,9762185,6.11,110,110,110,-4500,-12431,-7079652.073,0.021998,0.0637,-0.001191,-11581.08459,-0.074371,0,0,0,0.456608,-0.074371
57.687526,11.979807,-0.368621,0.027794,-0.072082,-0.000028,3,9762195,6.12,110,110,110,-4417,-12512,-7079652.073,0.02287,0.064063,-0.001192,-11477.68273,-0.075698,0,0,0,0.455833,-0.075698
57.687526,11.979807,-0.330322,0.022297,-0.066584,-0.000028,3,9762205,6.13,110,110,110,-4335,-12592,-7079652.073,0.021568,0.063684,-0.00118,-11375.20386,-0.076933,0,0,0,0.455113,-0.076933
57.687526,11.979807,-0.215428,0.022755,-0.077427,-0.000028,3,9762215,6.14,110,110,110,-4253,-12671,-7079652.073,0.016729,0.062192,-0.001233,-11273.63974,-0.075252,0,0,0,0.456093,-0.075252
57.687526,11.979807,-0.132847,0.021075,-0.088728,-0.000028,3,9762225,6.15,110,110,110,-4172,-12750,-7079652.073,0.012319,0.060079,-0.001281,-11172.9822,-0.068921,0,0,0,0.459787,-0.068921
57.687526,11.979807,-0.02992,0.016188,-0.093615,-0.000028,3,9762235,6.16,110,110,110,-4092,-12828,-7079652.073,0.007157,0.056989,-0.0013,-11073.22315,-0.062398,0,0,0,0.463593,-0.062398
57.687526,11.979807,0.014362,0.011148,-0.108581,-0.000028,3,9762245,6.17,110,110,110,-4013,-12905,-7079652.073,0.004083,0.053623,-0.001336,-10974.35456,-0.054147,0,0,0,0.468407,-0.054147
57.687526,11.979807,0.028724,0.007483,-0.125075,-0.000028,3,9762255,6.18,110,110,110,-3934,-12982,-7079652.073,0.002629,0.050267,-0.001396,-10876.3685,-0.047706,0,0,0,0.472165,-0.047706
57.687526,11.979807,0.063431,0.007941,-0.129656,-0.000028,3,9762265,6.19,110,110,110,-3856,-13057,-7079652.073,0.000727,0.046837,-0.001424,-10779.25708,-0.042896,0,0,0,0.474972,-0.042896
57.687526,11.979807,-0.010771,0.009621,-0.12706,-0.000028,3,9762275,6.2,110,110,110,-3779,-13133,-7079652.073,0.003019,0.044581,-0.001384,-10683.0125,-0.037564,0,0,0,0.478083,-0.037564
57.687526,11.979807,-0.009575,0.007789,-0.124311,-0.000057,3,9762285,6.21,110,110,110,-3702,-13207,-7079652.073,0.003325,0.04223,-0.001377,-10587.62701,-0.0376,0,0,0,0.478062,-0.0376
57.687526,11.979807,-0.031117,-0.008399,-0.115454,-0.000142,3,9762295,6.22,110,110,110,-3627,-13281,-7079652.073,0.004079,0.03942,-0.001372,-10493.09296,-0.035555,0,0,0,0.479255,-0.035555
57.687526,11.979807,-0.007181,-0.010079,-0.100793,-0.000283,3,9762305,6.23,110,110,110,-3551,-13354,-7079652.074,0.003118,0.036396,-0.001377,-10399.40273,-0.0335,0,0,0,0.480454,-0.0335
57.687526,11.979807,0.069416,-0.019548,-0.094837,-0.000368,3,9762315,6.24,110,110,110,-3477,-13427,-7079652.074,-0.000315,0.032313,-0.001392,-10306.54881,-0.029513,0,0,0,0.48278,-0.029513
57.687526,11.979807,0.076596,-0.02138,-0.088881,-0.000396,3,9762325,6.25,110,110,110,-3403,-13499,-7079652.074,-0.001613,0.02849,-0.001345,-10214.52371,-0.021998,0,0,0,0.487165,-0.021998
57.687526,11.979807,0.110107,-0.01573,-0.078954,-0.000396,3,9762335,6.26,110,110,110,-3330,-13570,-7079652.074,-0.003464,0.024897,-0.001257,-10123.32005,-0.016877,0,0,0,0.490153,-0.016877
57.687526,11.979807,0.068219,-0.009774,-0.065057,-0.000396,3,9762345,6.27,110,110,110,-3257,-13641,-7079652.074,-0.002447,0.022369,-0.001118,-10032.93049,-0.011434,0,0,0,0.493329,-0.011434
57.687526,11.979807,-0.028724,-0.000458,-0.061087,-0.000396,3,9762355,6.28,110,110,110,-3185,-13711,-7079652.074,0.00144,0.021427,-0.00102,-9943.34777,-0.009922,0,0,0,0.494211,-0.009922
57.687526,11.979807,-0.148406,-0.000916,-0.060781,-0.000396,3,9762365,6.29,110,110,110,-3114,-13780,-7079652.074,0.006948,0.021576,-0.000983,-9854.56468,-0.012867,0,0,0,0.492493,-0.012867
57.687526,11.979807,-0.178326,-0.004429,-0.057116,-0.000396,3,9762375,6.3,110,110,110,-3044,-13849,-7079652.074,0.009337,0.021564,-0.000987,-9766.574086,-0.018523,0,0,0,0.489192,-0.018523
57.687526,11.979807,-0.185507,-0.017868,-0.067348,-0.000396,3,9762385,6.31,110,110,110,-2974,-13917,-7079652.074,0.010134,0.020822,-0.001056,-9679.368914,-0.020901,0,0,0,0.487805,-0.020901
57.687526,11.979807,-0.116092,-0.02978,-0.071013,-0.000396,3,9762395,6.32,110,110,110,-2904,-13984,-7079652.074,0.007516,0.018748,-0.001118,-9592.942153,-0.020956,0,0,0,0.487773,-0.020956
57.687526,11.979807,-0.045479,-0.039095,-0.077733,-0.000396,3,9762405,6.33,110,110,110,-2836,-14051,-7079652.074,0.00402,0.015719,-0.00116,-9507.286854,-0.016264,0,0,0,0.490511,-0.016264
57.687526,11.979807,-0.017952,-0.042913,-0.093004,-0.000396,3,9762415,6.34,110,110,110,-2768,-14118,-7079652.074,0.001976,0.012557,-0.001218,-9422.396131,-0.009739,0,0,0,0.494318,-0.009739
57.687526,11.979807,-0.02274,-0.04444,-0.104611,-0.000396,3,9762425,6.35,110,110,110,-2700,-14183,-7079652.074,0.001516,0.009654,-0.001269,-9338.263161,-0.004533,0,0,0,0.497355,-0.004533
57.687526,11.979807,-0.004787,-0.039554,-0.110567,-0.000396,3,9762435,6.36,110,110,110,-2633,-14249,-7079652.074,0.000525,0.006992,-0.001305,-9254.881177,-0.00117,0,0,0,0.499317,-0.00117
57.687526,11.979807,-0.118485,-0.033903,-0.115912,-0.000396,3,9762445,6.37,110,110,110,-2567,-14313,-7079652.074,0.004627,0.006019,-0.001309,-9172.243478,0.002483,0,0,0,0.501449,0.002483
57.687526,11.979807,-0.260907,-0.030085,-0.115454,-0.000396,3,9762455,6.38,110,110,110,-2501,-14377,-7079652.074,0.011081,0.006579,-0.001313,-9090.34342,-0.000646,0,0,0,0.499623,-0.000646
57.687526,11.979807,-0.324338,-0.031154,-0.112094,-0.000425,3,9762465,6.39,110,110,110,-2436,-14441,-7079652.074,0.015029,0.007379,-0.001354,-9009.174418,-0.007661,0,0,0,0.49553,-0.007661
57.687526,11.979807,-0.332716,-0.037263,-0.107818,-0.000453,3,9762475,6.4,110,110,110,-2372,-14503,-7079652.074,0.016269,0.007704,-0.001399,-8928.729947,-0.012407,0,0,0,0.492761,-0.012407
57.687526,11.979807,-0.248939,-0.048411,-0.081703,-0.000453,3,9762485,6.41,110,110,110,-2308,-14566,-7079652.074,0.017258,0.00786,-0.001339,-8849.003539,-0.013973,0,0,0,0.491847,-0.013973
57.687526,11.979807,-0.120879,-0.047953,-0.074526,-0.000453,3,9762495,6.42,110,110,110,-2244,-14628,-7079652.074,0.013397,0.006631,-0.001296,-8769.988785,-0.010028,0,0,0,0.494149,-0.010028
57.687526,11.979807,-0.053857,-0.050855,-0.079565,-0.000453,3,9762505,6.43,110,110,110,-2181,-14689,-7079652.074,0.007494,0.004348,-0.001235,-8691.679332,-0.001842,0,0,0,0.498925,-0.001842
57.687526,11.979807,0.039495,-0.050244,-0.079565,-0.000453,3,9762515,6.44,110,110,110,-2119,-14749,-7079652.074,0.003412,0.001658,-0.001191,-8614.068886,0.004931,0,0,0,0.502877,0.004931
57.687526,11.979807,0.032314,-0.047189,-0.083383,-0.000453,3,9762525,6.45,110,110,110,-2058,-14810,-7079652.074,-0.001337,-0.001614,-0.001145,-8537.151205,0.01295,0,0,0,0.507556,0.01295
57.687526,11.979807,-0.004787,-0.040623,-0.087048,-0.000453,3,9762535,6.46,110,110,110,-1996,-14869,-7079652.074,-0.0023,-0.004214,-0.001094,-8460.920108,0.016514,0,0,0,0.509635,0.016514
57.687526,11.979807,-0.004787,-0.040623,-0.087048,-0.000453,3,9762545,6.47,110,110,110,-1936,-14928,-7079652.074,-0.00121,-0.005895,-0.001065,-8385.369464,0.017105,0,0,0,0.50998,0.017105
57.687526,11.979807,-0.208247,-0.049786,-0.094837,-0.000453,3,9762555,6.48,110,110,110,-1876,-14987,-7079652.074,0.00137,-0.007332,-0.001074,-8310.493201,0.015962,0,0,0,0.509313,0.015962
57.687526,11.979807,-0.319551,-0.045968,-0.094226,-0.000453,3,9762565,6.49,110,110,110,-1816,-15045,-7079652.074,0.007412,-0.007339,-0.001078,-8236.285298,0.009927,0,0,0,0.505792,0.009927
57.687526,11.979807,-0.445217,-0.055131,-0.088575,-0.000453,3,9762575,6.5,110,110,110,-1757,-15102,-7079652.074,0.013125,-0.006301,-0.001103,-8162.739789,0.003177,0,0,0,0.501853,0.003177
57.687526,11.979807,-0.374605,-0.06017,-0.083841,-0.000453,3,9762585,6.51,110,110,110,-1699,-15159,-7079652.074,0.019391,-0.004752,-0.001115,-8089.850763,-0.004638,0,0,0,0.497294,-0.004638
57.687526,11.979807,-0.397344,-0.058185,-0.0759,-0.000453,3,9762595,6.52,110,110,110,-1641,-15216,-7079652.074,0.018069,-0.004624,-0.001161,-8017.612358,-0.004638,0,0,0,0.497294,-0.004638
57.687526,11.979807,-0.344684,-0.066126,-0.076816,-0.000453,3,9762605,6.53,110,110,110,-1584,-15272,-7079652.074,0.018687,-0.004084,-0.001131,-7946.018768,-0.003445,0,0,0,0.49799,-0.003445
57.687526,11.979807,-0.332716,-0.06185,-0.071929,-0.000453,3,9762615,6.54,110,110,110,-1527,-15327,-7079652.074,0.016773,-0.004563,-0.001138,-7875.064237,-0.004602,0,0,0,0.497315,-0.004602
57.687526,11.979807,-0.327929,-0.057574,-0.077733,-0.000453,3,9762625,6.55,110,110,110,-1470,-15382,-7079652.075,0.015854,-0.00482,-0.001103,-7804.74306,-0.00221,0,0,0,0.49871,-0.00221
57.687526,11.979807,-0.38777,-0.045051,-0.077885,-0.000453,3,9762635,6.56,110,110,110,-1414,-15437,-7079652.075,0.015526,-0.004863,-0.001112,-7735.049584,-0.000663,0,0,0,0.499613,-0.000663
57.687526,11.979807,-0.38777,-0.045051,-0.077885,-0.000453,3,9762645,6.57,110,110,110,-1359,-15491,-7079652.075,0.017746,-0.003622,-0.001099,-7665.978205,-0.004124,0,0,0,0.497594,-0.004124
57.687526,11.979807,-0.56849,-0.039706,-0.083078,-0.000453,3,9762655,6.58,110,110,110,-1304,-15544,-7079652.075,0.02115,-0.001342,-0.001104,-7597.523372,-0.009808,0,0,0,0.494278,-0.009808
57.687526,11.979807,-0.56849,-0.039706,-0.083078,-0.000453,3,9762665,6.59,110,110,110,-1250,-15597,-7079652.075,0.026336,0.001563,-0.001148,-7529.67958,-0.017899,0,0,0,0.489557,-0.017899
57.687526,11.979807,-0.543356,-0.049022,-0.092241,-0.000453,3,9762675,6.6,110,110,110,-1196,-15650,-7079652.075,0.028553,0.004261,-0.001215,-7462.441376,-0.022814,0,0,0,0.486689,-0.022814
57.687526,11.979807,-0.551734,-0.055741,-0.086285,-0.000453,3,9762685,6.61,110,110,110,-1143,-15702,-7079652.075,0.027319,0.005701,-0.001321,-7395.803353,-0.023021,0,0,0,0.486568,-0.023021
57.687526,11.979807,-0.501468,-0.055741,-0.088728,-0.000453,3,9762695,6.62,110,110,110,-1090,-15754,-7079652.075,0.02747,0.006884,-0.001334,-7329.760155,-0.024354,0,0,0,0.48579,-0.024354
57.687526,11.979807,-0.534979,-0.04444,-0.090866,-0.000453,3,9762705,6.63,110,110,110,-1037,-15805,-7079652.075,0.025596,0.007456,-0.001366,-7264.306471,-0.023052,0,0,0,0.48655,-0.023052
57.687526,11.979807,-0.603197,-0.040164,-0.091783,-0.000453,3,9762715,6.64,110,110,110,-985,-15856,-7079652.075,0.026554,0.009009,-0.001371,-7199.43704,-0.023052,0,0,0,0.48655,-0.023052
57.687526,11.979807,-0.603197,-0.040164,-0.091783,-0.000453,3,9762725,6.65,110,110,110,-934,-15906,-7079652.075,0.029398,0.011371,-0.00137,-7135.146646,-0.030769,0,0,0,0.482047,-0.030769
57.687525,11.979808,-0.694156,-0.021075,-0.087506,-0.000453,3,9762735,6.66,132,132,132,800,-4901,-7114318.34,0.031381,0.014535,-0.00139,-5648.041283,-0.035916,0,0,0,0.479044,-0.035916
57.687525,11.979808,-0.748012,-0.021075,-0.093004,-0.000453,3,9762745,6.67,132,132,132,749,-4925,-7114318.34,0.034569,0.018215,-0.001409,-5597.598958,-0.042785,0,0,0,0.475037,-0.042785
57.687525,11.979808,-0.610378,-0.018784,-0.08659,-0.000453,3,9762756,6.681,132,132,132,698,-4948,-7114318.34,0.037629,0.022073,-0.001474,-5547.606892,-0.049702,0,0,0,0.471001,-0.049702
57.687525,11.979808,-0.610378,-0.018784,-0.08659,-0.000453,3,9762765,6.69,132,132,132,648,-4972,-7114318.34,0.033117,0.024204,-0.00153,-5498.061064,-0.047322,0,0,0,0.47239,-0.047322
57.687525,11.979808,-0.362636,-0.033598,-0.099113,-0.000453,3,9762775,6.7,132,132,132,598,-4995,-7114318.34,0.026979,0.024654,-0.001588,-5448.957493,-0.041633,0,0,0,0.475709,-0.041633
57.687525,11.979808,-0.257316,-0.034667,-0.102473,-0.000453,3,9762785,6.71,132,132,132,549,-5018,-7114318.34,0.021179,0.023835,-0.001611,-5400.29223,-0.035013,0,0,0,0.479571,-0.035013
57.687525,11.979808,-0.134044,-0.03879,-0.110567,-0.000453,3,9762795,6.72,132,132,132,500,-5041,-7114318.34,0.015704,0.022204,-0.001607,-5352.061363,-0.027908,0,0,0,0.483717,-0.027908
57.687525,11.979808,-0.147209,-0.032987,-0.117133,-0.000453,3,9762805,6.73,132,132,132,451,-5063,-7114318.341,0.009539,0.019444,-0.001617,-5304.261014,-0.018983,0,0,0,0.488924,-0.018983
57.687525,11.979808,-0.151996,-0.026114,-0.120188,-0.000453,3,9762815,6.74,132,132,132,403,-5086,-7114318.341,0.008539,0.0176,-0.001593,-5256.887341,-0.016138,0,0,0,0.490584,-0.016138
57.687525,11.979808,-0.196278,-0.029627,-0.122173,-0.000453,3,9762825,6.75,132,132,132,355,-5108,-7114318.341,0.008395,0.016306,-0.00158,-5209.936535,-0.014701,0,0,0,0.491423,-0.014701
57.687525,11.979808,-0.290827,-0.027794,-0.110567,-0.000453,3,9762835,6.76,132,132,132,308,-5130,-7114318.341,0.010025,0.015388,-0.001572,-5163.404821,-0.015412,0,0,0,0.491007,-0.015412
57.687525,11.979808,-0.330322,-0.032681,-0.102473,-0.000481,3,9762845,6.77,132,132,132,261,-5152,-7114318.341,0.014051,0.015539,-0.001506,-5117.288458,-0.01959,0,0,0,0.48857,-0.01959
57.687525,11.979808,-0.344684,-0.036194,-0.089186,-0.000481,3,9762855,6.78,132,132,132,215,-5173,-7114318.341,0.016493,0.015645,-0.001481,-5071.583739,-0.022138,0,0,0,0.487083,-0.022138
57.687525,11.979808,-0.396147,-0.038943,-0.076053,-0.000481,3,9762865,6.79,132,132,132,169,-5195,-7114318.341,0.017595,0.015604,-0.001423,-5026.28699,-0.023199,0,0,0,0.486464,-0.023199
57.687525,11.979808,-0.33511,-0.035888,-0.056658,-0.000481,3,9762875,6.8,132,132,132,123,-5216,-7114318.341,0.019859,0.015928,-0.001337,-4981.394568,-0.025786,0,0,0,0.484955,-0.025786
57.687525,11.979808,-0.342291,-0.038026,-0.055741,-0.000481,3,9762885,6.81,132,132,132,78,-5237,-7114318.341,0.017963,0.015637,-0.001235,-4936.902865,-0.0236,0,0,0,0.48623,-0.0236
57.687525,11.979808,-0.354259,-0.031765,-0.052229,-0.000481,3,9762895,6.82,132,132,132,33,-5258,-7114318.341,0.017811,0.015435,-0.001171,-4892.808304,-0.023246,0,0,0,0.486437,-0.023246
57.687525,11.979808,-0.390163,-0.02642,-0.054672,-0.000481,3,9762905,6.83,132,132,132,-11,-5278,-7114318.341,0.018239,0.015695,-0.001122,-4849.10734,-0.023935,0,0,0,0.486035,-0.023935
57.687525,11.979808,-0.388966,-0.029322,-0.060323,-0.000481,3,9762915,6.84,132,132,132,-55,-5299,-7114318.341,0.019769,0.016561,-0.001111,-4805.79646,-0.02633,0,0,0,0.484637,-0.02633
57.687525,11.979808,-0.44402,-0.026573,-0.074678,-0.000481,3,9762925,6.85,132,132,132,-98,-5319,-7114318.341,0.020111,0.01713,-0.001149,-4762.872181,-0.027241,0,0,0,0.484106,-0.027241
57.687525,11.979808,-0.447611,-0.030085,-0.08491,-0.000481,3,9762935,6.86,132,132,132,-142,-5339,-7114318.341,0.022399,0.018352,-0.001229,-4720.331053,-0.030751,0,0,0,0.482058,-0.030751
57.687525,11.979808,-0.495483,-0.037568,-0.09331,-0.000481,3,9762945,6.87,132,132,132,-184,-5359,-7114318.341,0.02312,0.019233,-0.001334,-4678.169655,-0.032352,0,0,0,0.481124,-0.032352
57.687525,11.979808,-0.578064,-0.037568,-0.099113,-0.000481,3,9762955,6.88,132,132,132,-227,-5379,-7114318.341,0.025221,0.020148,-0.001421,-4636.384598,-0.035369,0,0,0,0.479364,-0.035369
57.687525,11.979808,-0.596016,-0.036805,-0.100793,-0.000481,3,9762965,6.89,132,132,132,-269,-5398,-7114318.341,0.028999,0.021765,-0.001492,-4594.972524,-0.040764,0,0,0,0.476216,-0.040764
57.687525,11.979808,-0.611575,-0.039248,-0.104,-0.000481,3,9762975,6.9,132,132,132,-311,-5418,-7114318.341,0.030638,0.023311,-0.001562,-4553.930101,-0.043949,0,0,0,0.474357,-0.043949
57.687525,11.979808,-0.657054,-0.037263,-0.103694,-0.000481,3,9762985,6.91,132,132,132,-352,-5437,-7114318.341,0.03171,0.024718,-0.001623,-4513.254032,-0.046428,0,0,0,0.472911,-0.046428
57.687525,11.979808,-0.661841,-0.035583,-0.096364,-0.000481,3,9762995,6.92,132,132,132,-393,-5456,-7114318.341,0.033831,0.026566,-0.001655,-4472.941045,-0.050397,0,0,0,0.470596,-0.050397
57.687525,11.979808,-0.710911,-0.026267,-0.090713,-0.000481,3,9763005,6.93,132,132,132,-433,-5475,-7114318.341,0.034603,0.028333,-0.001655,-4432.9879,-0.052936,0,0,0,0.469114,-0.052936
57.687525,11.979808,-0.829396,-0.01741,-0.087659,-0.000481,3,9763015,6.94,132,132,132,-474,-5494,-7114318.341,0.036826,0.030945,-0.001633,-4393.391385,-0.057771,0,0,0,0.466293,-0.057771
