Lat GPS (deg),Long GPS (deg),Accelerometer Y (rad/s^2),Gyroscope X (rad/s),Gyroscope Z (rad/s),Steering Angle encoder(rad),Speed GPS (m/s),Time (ms),Time,flag,flag,flag,State Estimate X (m),State Estimate Y (m),State Estimate Psi (rad),State Estimate Roll (rad),State Estimate Rollrate (rad/s),State Estimate Delta (rad),State Estimate Velocity (m/s),Steerrate input (rad/s),drct,drct,drct,drct,drct
0,0,-1.815576,-0.00328,0.004976,0,3,47614,0,0,0,0,0,0.000345,0.000696,-0.000663,-0.001064,0.001553,0,0,0,0,0,0,0
0,0,-1.827544,-0.002669,0.000395,0,3,47634,0.02,0,0,0,0,0.000387,0.000779,-0.000714,-0.00271,0.000294,0,0,0,0,0,0,0
0,0,-1.809592,-0.002058,0.001006,0,3,47654,0.04,0,0,0,0,0.000394,0.000794,-0.000761,-0.002307,0.000335,0,0,0,0,0,0,0
0,0,-1.825151,-0.004044,0.003907,0,3,47674,0.06,0,0,0,0,0.000413,0.000833,-0.000803,-0.002944,0.001301,0,0,0,0,0,0,0
0,0,-1.819166,-0.001753,0.00238,0,3,47694,0.08,0,0,0,0,0.000439,0.000883,-0.000837,-0.001746,0.00079,0,0,0,0,0,0,0
0,0,-1.804805,-0.004196,0.003755,0,3,47714,0.1,0,0,0,0,0.000443,0.000892,-0.000885,-0.002674,0.001225,0,0,0,0,0,0,0
0,0,-1.828741,-0.00328,0.003449,0,3,47735,0.121,0,0,0,0,0.000475,0.000956,-0.000941,-0.001987,0.001268,0,0,0,0,0,0,0
0,0,-1.856268,-0.000073,-0.001132,0,3,47754,0.14,0,0,0,0,0.000506,0.001019,-0.001004,-0.003407,0.00241,0,0,0,0,0,0,0
0,0,-1.803608,-0.002058,0.001158,0,3,47774,0.16,0,0,0,0,0.000536,0.001079,-0.001023,-0.000707,-0.000488,0,0,0,0,0,0,0
0,0,-1.774884,-0.003891,0.002991,0,3,47794,0.18,0,0,0,0,0.000533,0.001074,-0.001066,-0.002963,0.000933,0,0,0,0,0,0,0
0,0,-1.794033,-0.001447,0.004213,0,3,47814,0.2,0,0,0,0,0.000553,0.001113,-0.001141,-0.002724,0.001336,0,0,0,0,0,0,0
0,0,-1.807198,0.001149,0.000089,0,3,47834,0.22,0,0,0,0,0.00057,0.001148,-0.001161,-0.002074,0.001091,0,0,0,0,0,0,0
0,0,-1.839512,-0.002516,0.003602,0,3,47854,0.24,0,0,0,0,0.000586,0.00118,-0.001164,-0.000951,0.001506,0,0,0,0,0,0,0
0,0,-1.792836,-0.003738,0.002228,0,3,47874,0.26,0,0,0,0,0.000621,0.001251,-0.001214,-0.003202,0.001033,0,0,0,0,0,0,0
0,0,-1.823954,-0.000684,0.003755,0,3,47894,0.28,0,0,0,0,0.000644,0.001298,-0.001266,-0.001785,0.001218,0,0,0,0,0,0,0
0,0,-1.816773,-0.003127,0.003602,0,3,47914,0.3,0,0,0,0,0.00066,0.001329,-0.00135,-0.005063,0.002236,0,0,0,0,0,0,0
0,0,-1.816773,-0.001295,0.0007,0,3,47934,0.32,0,0,0,0,0.000705,0.00142,-0.001412,-0.002479,0.000352,0,0,0,0,0,0,0
0,0,-1.800017,-0.002516,0.004976,0,3,47954,0.34,0,0,0,-0.000001,0.000719,0.001448,-0.001453,-0.00229,0.001577,0,0,0,0,0,0,0
0,0,-1.800017,-0.000837,0.003602,0,3,48034,0.42,0,0,0,-0.000001,0.000754,0.001519,-0.001483,-0.000917,0.001147,0,0,0,0,0,0,0
0,0,-1.801214,-0.002975,0.006504,0,3,48054,0.44,0,0,0,-0.000001,0.000776,0.001563,-0.001525,-0.002457,0.002023,0,0,0,0,0,0,0
0,0,-1.811985,-0.001447,-0.000063,0,3,48074,0.46,0,0,0,-0.000001,0.000817,0.001647,-0.001592,-0.002774,0.00011,0,0,0,0,0,0,0
0,0,-1.808395,-0.002516,0.004671,0,3,48094,0.48,0,0,0,-0.000001,0.000815,0.001641,-0.001666,-0.003204,0.001377,0,0,0,0,0,0,0
0,0,-1.808395,-0.005113,0.00406,0,3,48114,0.5,0,0,0,-0.000001,0.00084,0.001691,-0.001709,-0.00359,0.001286,0,0,0,0,0,0,0
0,0,-1.803608,-0.002822,0.005435,0,3,48134,0.52,0,0,0,-0.000001,0.000874,0.001761,-0.001772,-0.003055,0.00179,0,0,0,0,0,0,0
0,0,-1.801214,-0.004807,0.001158,0,3,48154,0.54,0,0,0,-0.000001,0.000916,0.001844,-0.001847,-0.004477,0.000503,0,0,0,0,0,0,0
0,0,-1.820363,-0.00328,-0.000063,0,3,48174,0.56,0,0,0,-0.000001,0.00095,0.001914,-0.001904,-0.003337,0.000212,0,0,0,0,0,0,0
0,0,-1.832331,0.00008,0.0007,0,3,48194,0.58,0,0,0,-0.000001,0.000969,0.001953,-0.001917,-0.000608,0.000349,0,0,0,0,0,0,0
0,0,-1.828741,-0.004349,0.003144,0,3,48214,0.6,0,0,0,-0.000001,0.000992,0.001998,-0.001979,-0.00383,0.001096,0,0,0,0,0,0,0
0,0,-1.792836,-0.003738,0.003449,0,3,48235,0.621,0,0,0,-0.000001,0.001022,0.00206,-0.002023,-0.002718,0.000255,0,0,0,0,0,0,0
0,0,-1.804805,-0.001447,0.006351,0,3,48254,0.64,0,0,0,-0.000001,0.001039,0.002094,-0.002066,-0.001644,-0.00055,0,0,0,0,0,0,0
0,0,-1.816773,-0.005571,-0.001132,0,3,48274,0.66,0,0,0,-0.000001,0.001056,0.002127,-0.002117,-0.004294,-0.000149,0,0,0,0,0,0,0
0,0,-1.816773,-0.006182,0.001464,0,3,48294,0.68,0,0,0,-0.000001,0.001073,0.002162,-0.002171,-0.004529,0.000596,0,0,0,0,0,0,0
0,0,-1.815576,-0.000989,0.004976,0,3,48314,0.7,0,0,0,-0.000001,0.001097,0.002211,-0.002173,-0.000655,0.001639,0,0,0,0,0,0,0
0,0,-1.800017,-0.003433,0.0007,0,3,48334,0.72,0,0,0,-0.000001,0.001139,0.002295,-0.002196,-0.001037,0.000568,0,0,0,0,0,0,0
0,0,-1.802411,-0.002975,0.002838,0,3,48354,0.74,0,0,0,-0.000001,0.00115,0.002316,-0.002246,-0.002926,0.000886,0,0,0,0,0,0,0
0,0,-1.820363,-0.000226,0.002228,0,3,48374,0.76,0,0,0,-0.000001,0.001174,0.002365,-0.002291,-0.001627,0.00078,0,0,0,0,0,0,0
0,0,-1.800017,-0.003586,0.004213,0,3,48394,0.78,0,0,0,-0.000001,0.001205,0.002428,-0.00233,-0.002868,0.001447,0,0,0,0,0,0,0
0,0,-1.809592,-0.000073,0.001006,0,3,48414,0.8,0,0,0,-0.000001,0.001225,0.002469,-0.002368,-0.001406,0.00032,0,0,0,0,0,0,0
0,0,-1.810789,0.003287,-0.000827,0,3,48434,0.82,0,0,0,-0.000002,0.001237,0.002493,-0.002337,0.001917,-0.000183,0,0,0,0,0,0,0
0,0,-1.808395,-0.002975,0.001769,0,3,48453,0.839,0,0,0,-0.000002,0.001234,0.002486,-0.002358,-0.002198,0.000524,0,0,0,0,0,0,0
0,0,-1.820363,-0.005724,0.003144,0,3,48474,0.86,0,0,0,-0.000002,0.001252,0.002523,-0.002436,-0.004989,0.001044,0,0,0,0,0,0,0
0,0,-1.829938,-0.000989,0.002686,0,3,48493,0.879,0,0,0,-0.000002,0.001271,0.00256,-0.002457,-0.001276,0.000856,0,0,0,0,0,0,0
0,0,-1.813182,-0.005571,-0.000063,0,3,48513,0.899,0,0,0,-0.000002,0.001285,0.002588,-0.002513,-0.004432,0.000001,0,0,0,0,0,0,0
0,0,-1.79523,-0.003433,0.004824,0,3,48534,0.92,0,0,0,-0.000002,0.001281,0.00258,-0.002581,-0.003626,0.001427,0,0,0,0,0,0,0
0,0,-1.786852,-0.006334,0.000853,0,3,48553,0.939,0,0,0,-0.000002,0.001299,0.002617,-0.002617,-0.00419,0.000254,0,0,0,0,0,0,0
0,0,-1.764113,-0.006029,0.002686,0,3,48574,0.96,0,0,0,-0.000002,0.001315,0.002649,-0.002695,-0.005145,0.000912,0,0,0,0,0,0,0
0,0,-1.804805,-0.001447,-0.001743,0,3,48594,0.98,0,0,0,-0.000002,0.001323,0.002665,-0.00274,-0.002389,-0.000555,0,0,0,0,0,0,0
0,0,-1.807198,-0.002669,0.00238,0,3,48614,1,0,0,0,-0.000002,0.001333,0.002685,-0.002804,-0.003315,0.000862,0,0,0,0,0,0,0
0,0,-1.785655,0.000538,0.002838,0,3,48634,1.02,0,0,0,-0.000002,0.001369,0.002758,-0.002842,-0.002599,0.001432,0,0,0,0,0,0,0
0,0,-1.810789,-0.002669,0.004824,0,3,48654,1.04,0,0,0,-0.000002,0.0014,0.002821,-0.002864,-0.002049,0.001562,0,0,0,0,0,0,0
0,0,-1.825151,0.000538,0.001769,0,3,48674,1.06,0,0,0,-0.000002,0.00144,0.0029,-0.002857,0.000053,0.000696,0,0,0,0,0,0,0
0,0,-1.82156,-0.003738,0.003755,0,3,48694,1.08,0,0,0,-0.000002,0.001461,0.002944,-0.00287,-0.002345,0.001234,0,0,0,0,0,0,0
0,0,-1.807198,-0.004196,0.000548,0,3,48714,1.1,0,0,0,-0.000002,0.001487,0.002996,-0.002949,-0.004498,0.00025,0,0,0,0,0,0,0
0,0,-1.831135,0.000385,0.00238,0,3,48734,1.12,0,0,0,-0.000002,0.001495,0.003011,-0.002981,-0.001077,0.000756,0,0,0,0,0,0,0
0,0,-1.828741,-0.006029,0.001922,0,3,48753,1.139,0,0,0,-0.000002,0.001503,0.003027,-0.003035,-0.004575,0.000565,0,0,0,0,0,0,0
0,0,-1.828741,-0.002669,-0.001438,0,3,48774,1.16,0,0,0,-0.000002,0.001505,0.003032,-0.003102,-0.003575,-0.000472,0,0,0,0,0,0,0
0,0,-1.819166,-0.009083,0.004824,0,3,48794,1.18,0,0,0,-0.000002,0.001511,0.003044,-0.003213,-0.007421,0.001554,0,0,0,0,0,0,0
0,0,-1.808395,-0.002516,0.003755,0,3,48813,1.199,0,0,0,-0.000002,0.001543,0.003108,-0.003273,-0.003139,0.001233,0,0,0,0,0,0,0
0,0,-1.837119,0.001454,0.003297,0,3,48834,1.22,0,0,0,-0.000002,0.001583,0.003188,-0.003283,-0.000017,0.001194,0,0,0,0,0,0,0
0,0,-1.810789,-0.004196,0.001311,0,3,48853,1.239,0,0,0,-0.000003,0.001594,0.003211,-0.003295,-0.002668,0.000361,0,0,0,0,0,0,0
0,0,-1.804805,-0.002058,0.002075,0,3,48874,1.26,0,0,0,-0.000003,0.001614,0.003251,-0.003365,-0.003289,0.000756,0,0,0,0,0,0,0
0,0,-1.800017,-0.003891,0.004824,0,3,48894,1.28,0,0,0,-0.000003,0.001625,0.003273,-0.003422,-0.003641,0.001463,0,0,0,0,0,0,0
0,0,-1.827544,-0.004807,-0.000369,0,3,48913,1.299,0,0,0,-0.000003,0.001648,0.00332,-0.003487,-0.004508,-0.000073,0,0,0,0,0,0,0
0,0,-1.807198,-0.000684,0.000853,0,3,48934,1.32,0,0,0,-0.000003,0.001668,0.003361,-0.003515,-0.001617,0.000436,0,0,0,0,0,0,0
0,0,-1.809592,-0.002211,0.000853,0,3,48953,1.339,0,0,0,-0.000003,0.00169,0.003404,-0.003566,-0.002909,0.000387,0,0,0,0,0,0,0
0,0,-1.835922,-0.000378,0.003297,0,3,48973,1.359,0,0,0,-0.000003,0.001683,0.003389,-0.003626,-0.002261,0.000899,0,0,0,0,0,0,0
0,0,-1.819166,-0.003127,0.001006,0,3,48994,1.38,0,0,0,-0.000003,0.001704,0.003433,-0.003673,-0.003221,0.000389,0,0,0,0,0,0,0
0,0,-1.790443,-0.003127,0.003449,0,3,49013,1.399,0,0,0,-0.000003,0.00172,0.003465,-0.003703,-0.002671,0.001131,0,0,0,0,0,0,0
0,0,-1.806001,-0.003127,0.000242,0,3,49034,1.42,0,0,0,-0.000003,0.001753,0.00353,-0.003733,-0.002796,0.000219,0,0,0,0,0,0,0
0,0,-1.846693,-0.006029,0.004518,0,3,49053,1.439,0,0,0,-0.000003,0.001768,0.003561,-0.003812,-0.0053,0.001466,0,0,0,0,0,0,0
0,0,-1.823954,-0.000073,0.003449,0,3,49073,1.459,0,0,0,-0.000003,0.001808,0.003642,-0.003812,-0.000498,0.001217,0,0,0,0,0,0,0
0,0,-1.790443,0.000232,0.005587,0,3,49094,1.48,0,0,0,-0.000003,0.001836,0.003698,-0.003809,-0.000186,0.001792,0,0,0,0,0,0,0
0,0,-1.801214,-0.005265,0.000395,0,3,49113,1.499,0,0,0,-0.000004,0.001873,0.003774,-0.003879,-0.00486,0.000238,0,0,0,0,0,0,0
0,0,-1.831135,-0.006182,0.002838,0,3,49134,1.52,0,0,0,-0.000004,0.001891,0.00381,-0.00396,-0.005531,0.000978,0,0,0,0,0,0,0
0,0,-1.79523,-0.00496,0.001311,0,3,49153,1.539,0,0,0,-0.000004,0.001916,0.00386,-0.004018,-0.004388,0.000496,0,0,0,0,0,0,0
0,0,-1.792836,0.00008,0.000089,0,3,49173,1.559,0,0,0,-0.000004,0.001935,0.003898,-0.004046,-0.001362,0.000135,0,0,0,0,0,0,0
0,0,-1.797624,-0.007251,0.004671,0,3,49193,1.579,0,0,0,-0.000004,0.00196,0.003948,-0.004134,-0.006136,0.001597,0,0,0,0,0,0,0
0,0,-1.79164,-0.004655,0.004976,0,3,49213,1.599,0,0,0,-0.000004,0.001989,0.004006,-0.004201,-0.004383,0.001572,0,0,0,0,0,0,0
0,0,-1.81797,-0.004196,0.002075,0,3,49294,1.68,0,0,0,-0.000004,0.002001,0.004031,-0.004196,-0.0028,0.000586,0,0,0,0,0,0,0
0,0,-1.813182,0.00176,0.005587,0,3,49314,1.7,0,0,0,-0.000004,0.002035,0.004099,-0.004215,-0.000191,0.001909,0,0,0,0,0,0,0
0,0,-1.827544,-0.000684,0.004518,0,3,49334,1.72,0,0,0,-0.000004,0.002076,0.004183,-0.004205,-0.000496,0.001505,0,0,0,0,0,0,0
0,0,-1.806001,0.002065,0.003297,0,3,49354,1.74,0,0,0,-0.000004,0.002112,0.004255,-0.004203,0.000438,0.001134,0,0,0,0,0,0,0
0,0,-1.809592,-0.0016,-0.002201,0,3,49374,1.76,0,0,0,-0.000005,0.002134,0.004299,-0.004218,-0.001896,-0.000606,0,0,0,0,0,0,0
0,0,-1.820363,-0.002516,0.000089,0,3,49394,1.78,0,0,0,-0.000005,0.00214,0.004311,-0.004263,-0.003023,0.00014,0,0,0,0,0,0,0
0,0,-1.838316,-0.005571,0.003144,0,3,49414,1.8,0,0,0,-0.000005,0.002162,0.004354,-0.004337,-0.005095,0.001113,0,0,0,0,0,0,0
0,0,-1.809592,-0.004502,0.004976,0,3,49434,1.82,0,0,0,-0.000005,0.002178,0.004387,-0.004416,-0.004674,0.001519,0,0,0,0,0,0,0
0,0,-1.834725,-0.000226,0.007573,0,3,49454,1.84,0,0,0,-0.000005,0.002202,0.004437,-0.004451,-0.001453,0.002334,0,0,0,0,0,0,0
0,0,-1.843103,-0.0016,0.001922,0,3,49474,1.86,0,0,0,-0.000005,0.002249,0.00453,-0.004485,-0.002257,0.000717,0,0,0,0,0,0,0
0,0,-1.827544,0.001607,0.004824,0,3,49494,1.88,0,0,0,-0.000005,0.002287,0.004608,-0.004491,0.000013,0.001703,0,0,0,0,0,0,0
0,0,-1.856268,-0.001295,0.001158,0,3,49514,1.9,0,0,0,-0.000005,0.002327,0.004687,-0.004493,-0.001293,0.000493,0,0,0,0,0,0,0
0,0,-1.790443,-0.00832,0.008336,0,3,49534,1.92,0,0,0,-0.000005,0.002345,0.004724,-0.00454,-0.001197,0.002668,0,0,0,0,0,0,0
0,0,-1.825151,-0.000378,-0.000216,0,3,49554,1.94,0,0,0,-0.000006,0.002415,0.004865,-0.004614,-0.00297,0.000232,0,0,0,0,0,0,0
0,0,-1.776081,0.001301,-0.001438,0,3,49574,1.96,0,0,0,-0.000006,0.002424,0.004883,-0.004646,-0.001082,-0.000381,0,0,0,0,0,0,0
0,0,-1.828741,-0.00328,0.005587,0,3,49594,1.98,0,0,0,-0.000006,0.002432,0.0049,-0.004672,-0.002693,0.001797,0,0,0,0,0,0,0
0,0,-1.853874,0.00237,-0.001285,0,3,49614,2,0,0,0,-0.000006,0.002462,0.00496,-0.004688,-0.000179,-0.000327,0,0,0,0,0,0,0
0,0,-1.834725,-0.005571,-0.000063,0,3,49634,2.02,0,0,0,-0.000006,0.002487,0.00501,-0.00471,-0.003842,0.000215,0,0,0,0,0,0,0
0,0,-1.813182,-0.006793,0.004366,0,3,49654,2.04,0,0,0,-0.000006,0.002503,0.005041,-0.004796,-0.005993,0.001424,0,0,0,0,0,0,0
0,0,-1.827544,-0.002822,-0.003118,0,3,49674,2.06,0,0,0,-0.000006,0.002524,0.005085,-0.004859,-0.003871,-0.000912,0,0,0,0,0,0,0
0,0,-1.776081,-0.002058,0.006351,0,3,49694,2.08,0,0,0,-0.000006,0.002533,0.005103,-0.004924,-0.003228,0.002087,0,0,0,0,0,0,0
0,0,-1.766506,-0.004807,0.002228,0,3,49714,2.1,0,0,0,-0.000007,0.00257,0.005177,-0.004996,-0.004842,0.000757,0,0,0,0,0,0,0
1.00683635,0.209086954,-1.800017,-0.002669,-0.002049,0,3,49734,2.12,20,20,20,-0.000007,0.002602,0.005241,-0.005074,-0.004238,-0.000436,0,0,0,0,0,0,0
1.00683635,0.209086954,-1.828741,0.002676,0.002075,0,3,49754,2.14,20,20,20,-0.000007,0.002613,0.005264,-0.005085,0.000195,0.00077,0,0,0,0,0,0,0
1.00683635,0.209086954,-1.825151,-0.005113,0.002991,0,3,49774,2.16,20,20,20,-0.000007,0.002628,0.005293,-0.005114,-0.003781,0.000942,0,0,0,0,0,0,0
1.00683635,0.209086954,-1.835922,-0.000684,0.0007,0,3,49794,2.18,20,20,20,-0.000007,0.002648,0.005334,-0.005187,-0.003101,0.000282,0,0,0,0,0,0,0
1.00683635,0.209086954,-1.803608,0.000385,0.006962,0,3,49814,2.2,20,20,20,-0.000007,0.002663,0.005364,-0.005208,-0.000916,0.002198,0,0,0,0,0,0,0
1.00683635,0.209086954,-1.808395,-0.003586,0.00574,0,3,49834,2.22,20,20,20,-0.000007,0.002694,0.005427,-0.005246,-0.003229,0.00176,0,0,0,0,0,0,0
1.00683635,0.209086954,-1.797624,-0.005876,-0.002049,0,3,49854,2.24,20,20,20,-0.000007,0.002728,0.005496,-0.005307,-0.005235,-0.000525,0,0,0,0,0,0,0
1.00683635,0.209086954,-1.819166,-0.002516,0.002686,0,3,49874,2.26,20,20,20,-0.000007,0.002728,0.005496,-0.005359,-0.003287,0.000868,0,0,0,0,0,0,0
1.00683635,0.209086954,-1.850284,0.000538,0.003297,0,3,49894,2.28,20,20,20,-0.000008,0.002753,0.005545,-0.005366,-0.000679,0.001107,0,0,0,0,0,0,0
1.00683635,0.209086954,-1.820363,-0.006945,0.002686,0,3,49914,2.3,20,20,20,-0.000008,0.002782,0.005604,-0.005426,-0.005504,0.000935,0,0,0,0,0,0,0
1.00683635,0.209086954,-1.79164,-0.0016,-0.000369,0,3,49934,2.32,20,20,20,-0.000008,0.002787,0.005614,-0.005507,-0.003793,-0.000167,0,0,0,0,0,0,0
1.00683635,0.209086954,-1.797624,-0.002058,0.004518,0,3,49954,2.34,20,20,20,-0.000008,0.002798,0.005637,-0.005546,-0.002686,0.001478,0,0,0,0,0,0,0
1.00683635,0.209086954,-1.826347,0.003592,-0.00098,0,3,49974,2.36,20,20,20,-0.000008,0.002832,0.005705,-0.005533,0.001044,-0.000171,0,0,0,0,0,0,0
1.00683635,0.209086954,-1.808395,-0.001142,0.001158,0,3,49993,2.379,20,20,20,-0.000008,0.002848,0.005736,-0.005554,-0.001922,0.000497,0,0,0,0,0,0,0
1.00683635,0.209086954,-1.788049,-0.003433,0.008031,0,3,50013,2.399,20,20,20,-0.000008,0.002858,0.005757,-0.005596,-0.003239,0.002458,0,0,0,0,0,0,0
1.00683635,0.209086954,-1.808395,-0.000989,0.001464,0,3,50034,2.42,20,20,20,-0.000008,0.002907,0.005855,-0.005602,-0.001411,0.000585,0,0,0,0,0,0,0
1.00683635,0.209086954,-1.800017,-0.000073,0.004976,0,3,50053,2.439,20,20,20,-0.000009,0.002928,0.005898,-0.005587,-0.000295,0.001615,0,0,0,0,0,0,0
1.00683635,0.209086954,-1.802411,-0.004807,0.001158,0,3,50073,2.459,20,20,20,-0.000009,0.002955,0.005953,-0.005607,-0.00353,0.000402,0,0,0,0,0,0,0
1.00683635,0.209086954,-1.822757,-0.005418,0.004213,0,3,50093,2.479,20,20,20,-0.000009,0.002984,0.006011,-0.005655,-0.004492,0.001467,0,0,0,0,0,0,0
1.00683635,0.209086954,-1.81797,0.002218,0.003907,0,3,50113,2.499,20,20,20,-0.000009,0.003031,0.006106,-0.005683,-0.000509,0.001417,0,0,0,0,0,0,0
1.00683635,0.209086954,-1.835922,0.002218,0.004366,0,3,50134,2.52,20,20,20,-0.000009,0.003071,0.006186,-0.005704,-0.000298,0.001501,0,0,0,0,0,0,0
1.00683635,0.209086954,-1.808395,-0.000684,0.004366,0,3,50154,2.54,20,20,20,-0.00001,0.003113,0.006271,-0.005728,-0.001707,0.001509,0,0,0,0,0,0,0
1.00683635,0.209086954,-1.782065,0.000385,0.000548,0,3,50174,2.56,20,20,20,-0.00001,0.003148,0.006342,-0.005725,-0.000609,0.000298,0,0,0,0,0,0,0
1.00683635,0.209086954,-1.788049,-0.000226,0.002686,0,3,50193,2.579,20,20,20,-0.00001,0.003163,0.006372,-0.005737,-0.001234,0.000906,0,0,0,0,0,0,0
1.00683635,0.209086954,-1.79882,-0.000684,0.004518,0,3,50213,2.599,20,20,20,-0.00001,0.003183,0.006413,-0.00576,-0.001658,0.001437,0,0,0,0,0,0,0
1.00683635,0.209086954,-1.84789,0.002218,0.004366,0,3,50234,2.62,20,20,20,-0.00001,0.003214,0.006474,-0.005764,0.000153,0.001418,0,0,0,0,0,0,0
1.00683635,0.209086954,-1.822757,-0.000226,0.005435,0,3,50254,2.64,20,20,20,-0.000011,0.003248,0.006543,-0.00576,-0.000659,0.001777,0,0,0,0,0,0,0
1.00683635,0.209086954,-1.820363,-0.002669,0.002838,0,3,50273,2.659,20,20,20,-0.000011,0.00329,0.006628,-0.00581,-0.003385,0.001016,0,0,0,0,0,0,0
1.00683635,0.209086954,-1.826347,-0.001295,0.00574,0,3,50334,2.72,20,20,20,-0.000011,0.003387,0.006823,-0.005965,-0.004988,0.001771,0,0,0,0,0,0,0
1.00683635,0.209086954,-1.806001,-0.003891,0.003297,0,3,50354,2.74,20,20,20,-0.000012,0.003434,0.006918,-0.006017,-0.003987,0.001198,0,0,0,0,0,0,0
1.00683635,0.209086954,-1.801214,-0.005113,0.001006,0,3,50374,2.76,20,20,20,-0.000012,0.003451,0.006953,-0.006092,-0.005261,0.00032,0,0,0,0,0,0,0
1.00683635,0.209086954,-1.829938,-0.000837,0.002838,0,3,50394,2.78,20,20,20,-0.000012,0.003454,0.006958,-0.006155,-0.002954,0.000848,0,0,0,0,0,0,0
1.00683635,0.209086954,-1.823954,-0.005113,0.001922,0,3,50414,2.8,20,20,20,-0.000012,0.00347,0.00699,-0.006193,-0.004213,0.000621,0,0,0,0,0,0,0
1.00683635,0.209086954,-1.803608,-0.002516,0.0007,0,3,50434,2.82,20,20,20,-0.000012,0.003492,0.007034,-0.006244,-0.004039,0.000328,0,0,0,0,0,0,0
1.00683635,0.209086954,-1.829938,-0.001906,0.005893,0,3,50454,2.84,20,20,20,-0.000012,0.003499,0.007049,-0.006286,-0.002754,0.001808,0,0,0,0,0,0,0
1.00683635,0.209086954,-1.819166,-0.002822,0.002228,0,3,50474,2.86,20,20,20,-0.000013,0.003534,0.007119,-0.006315,-0.002952,0.000769,0,0,0,0,0,0,0
1.00683635,0.209086954,-1.820363,-0.005876,0.000089,0,3,50494,2.88,20,20,20,-0.000013,0.003545,0.007142,-0.006388,-0.005636,0.000038,0,0,0,0,0,0,0
1.00683635,0.209086954,-1.813182,-0.001295,0.003144,0,3,50514,2.9,20,20,20,-0.000013,0.003547,0.007145,-0.006441,-0.002906,0.000961,0,0,0,0,0,0,0
1.00683635,0.209086954,-1.807198,-0.001906,0.005435,0,3,50534,2.92,20,20,20,-0.000013,0.00357,0.007192,-0.006461,-0.002189,0.001733,0,0,0,0,0,0,0
1.00683635,0.209086954,-1.809592,-0.007251,0.002228,0,3,50554,2.94,20,20,20,-0.000013,0.003621,0.007295,-0.006534,-0.006225,0.000911,0,0,0,0,0,0,0
1.00683635,0.209086954,-1.806001,-0.000226,-0.001438,0,3,50574,2.96,20,20,20,-0.000013,0.003641,0.007335,-0.006572,-0.002212,-0.000365,0,0,0,0,0,0,0
1.00683635,0.209086954,-1.788049,0.004967,0.003297,0,3,50594,2.98,20,20,20,-0.000013,0.003652,0.007356,-0.006561,0.001628,0.001126,0,0,0,0,0,0,0
1.00683635,0.209086954,-1.792836,0.000996,0.003907,0,3,50614,3,20,20,20,-0.000014,0.003684,0.007421,-0.006552,-0.000184,0.001328,0,0,0,0,0,0,0
1.00683635,0.209086954,-1.816773,0.002829,0.00406,0,3,50634,3.02,20,20,20,-0.000014,0.003725,0.007503,-0.006552,0.000389,0.001427,0,0,0,0,0,0,0
1.00683635,0.209086954,-1.82156,0.000691,0.003297,0,3,50654,3.04,20,20,20,-0.000014,0.003752,0.007558,-0.00657,-0.001081,0.00107,0,0,0,0,0,0,0
1.00683635,0.209086954,-1.792836,-0.001142,0.002228,0,3,50674,3.06,20,20,20,-0.000014,0.003775,0.007604,-0.006578,-0.00167,0.000751,0,0,0,0,0,0,0
1.00683635,0.209086954,-1.852677,-0.001753,0.00238,0,3,50694,3.08,20,20,20,-0.000014,0.003787,0.007629,-0.006631,-0.003192,0.000742,0,0,0,0,0,0,0
1.00683635,0.209086954,-1.786852,0.000996,0.003907,0,3,50714,3.1,20,20,20,-0.000015,0.00381,0.007675,-0.006638,-0.000623,0.001296,0,0,0,0,0,0,0
1.00683635,0.209086954,-1.782065,-0.003891,0.003907,0,3,50734,3.12,20,20,20,-0.000015,0.003841,0.007738,-0.006667,-0.003435,0.001298,0,0,0,0,0,0,0
1.00683635,0.209086954,-1.794033,-0.000837,0.001006,0,3,50753,3.139,20,20,20,-0.000015,0.003867,0.00779,-0.006708,-0.002506,0.000382,0,0,0,0,0,0,0
1.00683635,0.209086954,-1.816773,-0.001753,0.003602,0,3,50773,3.159,20,20,20,-0.000015,0.003886,0.007828,-0.006723,-0.002088,0.001202,0,0,0,0,0,0,0
1.00683635,0.209086954,-1.846693,-0.002211,0.004366,0,3,50793,3.179,20,20,20,-0.000015,0.003912,0.00788,-0.006772,-0.003241,0.001409,0,0,0,0,0,0,0
1.00683635,0.209086954,-1.828741,0.000385,0.001769,0,3,50813,3.199,20,20,20,-0.000016,0.003937,0.007932,-0.006752,-0.000258,0.000598,0,0,0,0,0,0,0
1.00683635,0.209086954,-1.803608,-0.000226,0.004824,0,3,50834,3.22,20,20,20,-0.000016,0.003949,0.007956,-0.006753,-0.001612,0.000384,0,0,0,0,0,0,0
1.00683635,0.209086954,-1.802411,-0.004349,0.001464,0,3,50854,3.24,20,20,20,-0.000016,0.003973,0.008004,-0.006777,-0.003628,0.000598,0,0,0,0,0,0,0
1.00683635,0.209086954,-1.806001,-0.001447,0.000548,0,3,50874,3.26,20,20,20,-0.000016,0.004006,0.008071,-0.006822,-0.002941,0.000376,0,0,0,0,0,0,0
1.00683635,0.209086954,-1.826347,-0.000378,0.005587,0,3,50894,3.28,20,20,20,-0.000016,0.004024,0.008106,-0.006831,-0.001265,0.001793,0,0,0,0,0,0,0
1.00683635,0.209086954,-1.816773,0.001912,0.002838,0,3,50914,3.3,20,20,20,-0.000016,0.004052,0.008163,-0.006843,-0.000404,0.000908,0,0,0,0,0,0,0
1.00683635,0.209086954,-1.816773,-0.000073,0.003297,0,3,50934,3.32,20,20,20,-0.000017,0.004059,0.008177,-0.006839,-0.000868,0.000957,0,0,0,0,0,0,0
1.00683635,0.209086954,-1.822757,0.003439,0.006198,0,3,50954,3.34,20,20,20,-0.000017,0.004085,0.00823,-0.006806,0.001655,0.001991,0,0,0,0,0,0,0
1.00683635,0.209086954,-1.819166,0.000385,0.002686,0,3,50974,3.36,20,20,20,-0.000017,0.004124,0.008307,-0.006794,-0.000474,0.00092,0,0,0,0,0,0,0
1.00683635,0.209086954,-1.800017,0.001454,0.002838,0,3,50994,3.38,20,20,20,-0.000017,0.004157,0.008374,-0.006802,-0.000526,0.001038,0,0,0,0,0,0,0
1.00683635,0.209086954,-1.809592,-0.004044,0.001769,0,3,51014,3.4,20,20,20,-0.000018,0.004179,0.008418,-0.006823,-0.003387,0.000601,0,0,0,0,0,0,0
1.00683635,0.209086954,-1.826347,0.001149,0.001311,0,3,51034,3.42,20,20,20,-0.000018,0.004205,0.00847,-0.006831,-0.001352,0.001424,0,0,0,0,0,0,0
1.00683635,0.209086954,-1.832331,-0.006945,0.004976,0,3,51054,3.44,20,20,20,-0.000018,0.00423,0.008521,-0.006859,-0.004749,0.001557,0,0,0,0,0,0,0
1.00683635,0.209086954,-1.823954,-0.002364,-0.000216,0,3,51074,3.46,20,20,20,-0.000018,0.004253,0.008567,-0.006909,-0.003531,-0.000038,0,0,0,0,0,0,0
1.00683635,0.209086954,-1.827544,-0.001753,-0.000827,0,3,51094,3.48,20,20,20,-0.000018,0.004254,0.00857,-0.007016,-0.004866,-0.000228,0,0,0,0,0,0,0
1.00683635,0.209086954,-1.815576,-0.006029,0.003602,0,3,51114,3.5,20,20,20,-0.000018,0.004264,0.008591,-0.00709,-0.005701,0.001195,0,0,0,0,0,0,0
1.00683635,0.209086954,-1.790443,-0.001447,0.003297,0,3,51134,3.52,20,20,20,-0.000018,0.004286,0.008635,-0.00714,-0.002619,0.000824,0,0,0,0,0,0,0
1.00683635,0.209086954,-1.820363,-0.005113,0.00238,0,3,51154,3.54,20,20,20,-0.000019,0.004311,0.008684,-0.007185,-0.004543,0.000832,0,0,0,0,0,0,0
1.00683635,0.209086954,-1.839512,-0.006945,0.001311,0,3,51174,3.56,20,20,20,-0.000019,0.004324,0.008711,-0.007317,-0.007832,0.000419,0,0,0,0,0,0,0
1.00683635,0.209086954,-1.811985,-0.006334,0.005435,0,3,51194,3.58,20,20,20,-0.000019,0.004338,0.008739,-0.007399,-0.006038,0.001712,0,0,0,0,0,0,0
1.00683635,0.209086954,-1.815576,-0.003586,0.002686,0,3,51214,3.6,20,20,20,-0.000019,0.004366,0.008795,-0.00748,-0.004887,0.000864,0,0,0,0,0,0,0
1.00683635,0.209086954,-1.826347,-0.003738,0.003907,0,3,51234,3.62,20,20,20,-0.000019,0.004385,0.008834,-0.007532,-0.004132,0.001247,0,0,0,0,0,0,0
1.00683635,0.209086954,-1.820363,-0.002975,0.001311,0,3,51254,3.64,20,20,20,-0.00002,0.004429,0.008922,-0.007557,-0.00316,0.000626,0,0,0,0,0,0,0
1.00683635,0.209086954,-1.828741,-0.001295,0.002533,0,3,51274,3.66,20,20,20,-0.00002,0.004461,0.008986,-0.0076,-0.002844,0.000961,0,0,0,0,0,0,0
1.00683635,0.209086954,-1.809592,-0.000684,0.000089,0,3,51294,3.68,20,20,20,-0.00002,0.004482,0.009028,-0.00762,-0.002047,0.000101,0,0,0,0,0,0,0
1.00683635,0.209086954,-1.813182,-0.002058,0.003755,0,3,51314,3.7,20,20,20,-0.00002,0.004488,0.009041,-0.007635,-0.002382,0.001178,0,0,0,0,0,0,0
1.00683635,0.209086954,-1.81797,-0.00664,0.003602,0,3,51334,3.72,20,20,20,-0.00002,0.004504,0.009073,-0.007706,-0.005986,0.001093,0,0,0,0,0,0,0
1.00683635,0.209086954,-1.813182,-0.002211,0.002991,0,3,51354,3.74,20,20,20,-0.000021,0.004533,0.009132,-0.007794,-0.004509,0.001034,0,0,0,0,0,0,0
1.00683635,0.209086954,-1.819166,-0.003586,-0.000827,0,3,51374,3.76,20,20,20,-0.000021,0.004554,0.009173,-0.007857,-0.004611,-0.00019,0,0,0,0,0,0,0
1.00683635,0.209086954,-1.810789,-0.003127,0.003144,0,3,51394,3.78,20,20,20,-0.000021,0.004572,0.00921,-0.007905,-0.003839,0.001121,0,0,0,0,0,0,0
1.00683635,0.209086954,-1.801214,-0.001142,0.00406,0,3,51414,3.8,20,20,20,-0.000021,0.004595,0.009257,-0.007967,-0.003285,0.001303,0,0,0,0,0,0,0
1.00683635,0.209086954,-1.811985,-0.003127,0.006351,0,3,51434,3.82,20,20,20,-0.000021,0.004627,0.009322,-0.008017,-0.003722,0.000942,0,0,0,0,0,0,0
1.00683635,0.209086954,-1.804805,-0.000073,0.002838,0,3,51454,3.84,20,20,20,-0.000022,0.004665,0.009398,-0.008049,-0.002072,0.001073,0,0,0,0,0,0,0
1.00683635,0.209086954,-1.816773,-0.005113,0.000089,0,3,51474,3.86,20,20,20,-0.000022,0.004716,0.009501,-0.008094,-0.004796,0.000332,0,0,0,0,0,0,0
1.00683635,0.209086954,-1.820363,-0.001753,0.0007,0,3,51494,3.88,20,20,20,-0.000022,0.004721,0.009511,-0.008132,-0.003094,0.000221,0,0,0,0,0,0,0
1.00683635,0.209086954,-1.816773,0.002065,0.004976,0,3,51514,3.9,20,20,20,-0.000022,0.004717,0.009502,-0.008119,0.000245,0.001449,0,0,0,0,0,0,0
1.00683635,0.209086954,-1.809592,-0.005418,0.001769,0,3,51534,3.92,20,20,20,-0.000023,0.004742,0.009553,-0.008129,-0.001206,0.00036,0,0,0,0,0,0,0
1.00683635,0.209086954,-1.811985,-0.003891,-0.000521,0,3,51554,3.94,20,20,20,-0.000023,0.004754,0.009577,-0.00819,-0.004715,-0.000096,0,0,0,0,0,0,0
1.00683635,0.209086954,-1.79523,-0.001447,0.004366,0,3,51574,3.96,20,20,20,-0.000023,0.00476,0.00959,-0.00823,-0.002855,0.001386,0,0,0,0,0,0,0
1.00683635,0.209086954,-1.819166,-0.002058,0.002838,0,3,51594,3.98,20,20,20,-0.000023,0.004789,0.009647,-0.008252,-0.002719,0.000945,0,0,0,0,0,0,0
1.00683635,0.209086954,-1.796427,-0.00496,0.004213,0,3,51614,4,20,20,20,-0.000023,0.00482,0.00971,-0.008299,-0.004653,0.001431,0,0,0,0,0,0,0
1.00683635,0.209086954,-1.79882,-0.004196,0.006504,0,3,51634,4.02,20,20,20,-0.000024,0.004845,0.009761,-0.008356,-0.004786,0.00133,0,0,0,0,0,0,0
1.00683635,0.209086954,-1.82156,-0.004349,-0.001132,0,3,51654,4.04,20,20,20,-0.000024,0.004889,0.009849,-0.00843,-0.005337,-0.000119,0,0,0,0,0,0,0
1.00683635,0.209086954,-1.827544,-0.00328,0.001769,0,3,51674,4.06,20,20,20,-0.000024,0.0049,0.009871,-0.008499,-0.004649,0.000635,0,0,0,0,0,0,0
1.00683635,0.209086954,-1.807198,0.002218,0.003297,0,3,51694,4.08,20,20,20,-0.000024,0.004937,0.009946,-0.008482,0.000268,0.001242,0,0,0,0,0,0,0
1.00683635,0.209086954,-1.816773,-0.001295,0.003449,0,3,51714,4.1,20,20,20,-0.000025,0.004966,0.010005,-0.008522,-0.002873,0.001153,0,0,0,0,0,0,0
1.00683635,0.209086954,-1.81797,-0.002211,0.003755,0,3,51734,4.12,20,20,20,-0.000025,0.005007,0.010087,-0.008577,-0.003723,0.001351,0,0,0,0,0,0,0
1.00683635,0.209086954,-1.780868,-0.004655,0.001006,0,3,51754,4.14,20,20,20,-0.000026,0.005042,0.010157,-0.008647,-0.005328,0.000449,0,0,0,0,0,0,0
1.00683635,0.209086954,-1.81797,-0.006334,0.003449,0,3,51774,4.16,20,20,20,-0.000026,0.005061,0.010196,-0.008708,-0.005714,0.001151,0,0,0,0,0,0,0
1.00683635,0.209086954,-1.81797,-0.003891,-0.000216,0,3,51794,4.18,20,20,20,-0.000026,0.005074,0.010222,-0.008797,-0.005575,-0.000076,0,0,0,0,0,0,0
1.00683635,0.209086954,-1.816773,-0.001295,0.003144,0,3,51814,4.2,20,20,20,-0.000026,0.005084,0.010241,-0.00884,-0.003037,0.001037,0,0,0,0,0,0,0
1.00683637,0.209086899,-1.790443,-0.000073,0.004366,0,3,51834,4.22,41,41,41,-0.000026,0.005092,0.010258,-0.008854,-0.001592,0.001283,0,0,0,0,0,0,0
1.00683637,0.209086899,-1.79882,-0.0016,0.007267,0,3,51854,4.24,41,41,41,-0.000026,0.00512,0.010314,-0.008902,-0.003139,0.002292,0,0,0,0,0,0,0
1.00683637,0.209086899,-1.820363,-0.002516,-0.000216,0,3,51874,4.26,41,41,41,-0.000027,0.005151,0.010378,-0.008992,-0.005024,-0.000043,0,0,0,0,0,0,0
1.00683637,0.209086899,-1.808395,-0.002211,0.001617,0,3,51894,4.28,41,41,41,-0.000027,0.005157,0.010389,-0.009026,-0.003277,0.000541,0,0,0,0,0,0,0
1.00683637,0.209086899,-1.822757,-0.006487,0.002991,0,3,51914,4.3,41,41,41,-0.000027,0.005167,0.01041,-0.00909,-0.005953,0.000931,0,0,0,0,0,0,0
1.00683637,0.209086899,-1.814379,-0.002975,-0.000216,0,3,51934,4.32,41,41,41,-0.000027,0.005195,0.010464,-0.009149,-0.004411,0.000062,0,0,0,0,0,0,0
1.00683637,0.209086899,-1.808395,-0.004655,-0.001438,0,3,51954,4.34,41,41,41,-0.000027,0.005215,0.010505,-0.009227,-0.005728,-0.000274,0,0,0,0,0,0,0
1.00683637,0.209086899,-1.815576,-0.001447,-0.00159,0,3,51974,4.36,41,41,41,-0.000027,0.005216,0.010509,-0.009229,-0.002225,-0.000435,0,0,0,0,0,0,0
1.00683637,0.209086899,-1.794033,-0.00328,0.002228,0,3,51994,4.38,41,41,41,-0.000027,0.005217,0.01051,-0.009245,-0.003263,0.000724,0,0,0,0,0,0,0
1.00683637,0.209086899,-1.802411,-0.005571,-0.00159,0,3,52014,4.4,41,41,41,-0.000028,0.00525,0.010575,-0.009268,-0.004654,-0.000292,0,0,0,0,0,0,0
1.00683637,0.209086899,-1.806001,-0.006945,0.002075,0,3,52034,4.42,41,41,41,-0.000028,0.005273,0.010623,-0.009299,-0.005349,0.000847,0,0,0,0,0,0,0
1.00683637,0.209086899,-1.789246,-0.000378,0.000089,0,3,52054,4.44,41,41,41,-0.000028,0.005281,0.010639,-0.00935,-0.003023,0.00001,0,0,0,0,0,0,0
1.00683637,0.209086899,-1.814379,-0.002669,0.005282,0,3,52074,4.46,41,41,41,-0.000028,0.005282,0.01064,-0.009379,-0.003218,0.0016,0,0,0,0,0,0,0
1.00683637,0.209086899,-1.853874,-0.001906,0.005435,0,3,52094,4.48,41,41,41,-0.000028,0.005305,0.010688,-0.009405,-0.002825,0.001669,0,0,0,0,0,0,0
1.00683637,0.209086899,-1.773687,-0.000531,-0.001285,0,3,52114,4.5,41,41,41,-0.000029,0.005336,0.01075,-0.009429,-0.002427,-0.000306,0,0,0,0,0,0,0
1.00683637,0.209086899,-1.84789,0.002676,-0.000827,0,3,52134,4.52,41,41,41,-0.000029,0.005344,0.010766,-0.009531,-0.00622,0.000264,0,0,0,0,0,0,0
1.00683637,0.209086899,-1.814379,0.000538,0.002686,0,3,52154,4.54,41,41,41,-0.000029,0.005345,0.010767,-0.009518,-0.000784,0.000791,0,0,0,0,0,0,0
1.00683637,0.209086899,-1.838316,0.001607,0.000242,0,3,52174,4.56,41,41,41,-0.000029,0.005372,0.010821,-0.00953,-0.001097,0.000215,0,0,0,0,0,0,0
1.00683637,0.209086899,-1.808395,-0.004044,0.005893,0,3,52194,4.58,41,41,41,-0.000029,0.005382,0.010842,-0.009566,-0.004049,0.001843,0,0,0,0,0,0,0
1.00683637,0.209086899,-1.841906,-0.004655,0.003907,0,3,52214,4.6,41,41,41,-0.000029,0.005413,0.010905,-0.009648,-0.005681,0.001244,0,0,0,0,0,0,0
1.00683637,0.209086899,-1.838316,-0.00328,0.001769,0,3,52234,4.62,41,41,41,-0.00003,0.005438,0.010954,-0.009696,-0.004246,0.000606,0,0,0,0,0,0,0
1.00683637,0.209086899,-1.81797,-0.004196,0.004824,0,3,52254,4.64,41,41,41,-0.00003,0.005442,0.010963,-0.009745,-0.004552,0.001429,0,0,0,0,0,0,0
1.00683637,0.209086899,-1.816773,-0.002822,0.003144,0,3,52274,4.66,41,41,41,-0.00003,0.005476,0.011032,-0.009805,-0.004308,0.001087,0,0,0,0,0,0,0
1.00683637,0.209086899,-1.814379,-0.00496,0.002991,0,3,52294,4.68,41,41,41,-0.00003,0.005498,0.011076,-0.009871,-0.005476,0.000968,0,0,0,0,0,0,0
1.00683637,0.209086899,-1.79882,-0.002516,0.00406,0,3,52314,4.7,41,41,41,-0.000031,0.005533,0.011147,-0.009929,-0.004114,0.001417,0,0,0,0,0,0,0
1.00683637,0.209086899,-1.837119,-0.004196,0.002075,0,3,52334,4.72,41,41,41,-0.000031,0.005554,0.011188,-0.009968,-0.00364,0.000832,0,0,0,0,0,0,0
1.00683637,0.209086899,-1.827544,-0.001142,0.002533,0,3,52354,4.74,41,41,41,-0.000031,0.005573,0.011228,-0.010011,-0.003155,0.000844,0,0,0,0,0,0,0
1.00683637,0.209086899,-1.811985,-0.000684,0.002991,0,3,52374,4.76,41,41,41,-0.000031,0.005594,0.011269,-0.010025,-0.002137,0.000986,0,0,0,0,0,0,0
1.00683637,0.209086899,-1.79882,0.000385,0.006198,0,3,52394,4.78,41,41,41,-0.000032,0.005627,0.011335,-0.010023,-0.001106,0.002039,0,0,0,0,0,0,0
1.00683637,0.209086899,-1.803608,-0.001142,0.001006,0,3,52414,4.8,41,41,41,-0.000032,0.005672,0.011427,-0.010005,-0.001535,0.000466,0,0,0,0,0,0,0
1.00683637,0.209086899,-1.810789,-0.002822,0.006504,0,3,52434,4.82,41,41,41,-0.000032,0.005686,0.011455,-0.010048,-0.003748,0.002032,0,0,0,0,0,0,0
1.00683637,0.209086899,-1.808395,-0.001753,0.0007,0,3,52454,4.84,41,41,41,-0.000033,0.005724,0.01153,-0.010094,-0.003602,0.000308,0,0,0,0,0,0,0
1.00683637,0.209086899,-1.810789,-0.002516,0.00574,0,3,52474,4.86,41,41,41,-0.000033,0.005734,0.011552,-0.010145,-0.003895,0.001791,0,0,0,0,0,0,0
1.00683637,0.209086899,-1.826347,-0.004807,0.002838,0,3,52494,4.88,41,41,41,-0.000034,0.005778,0.01164,-0.010215,-0.005547,0.001031,0,0,0,0,0,0,0
1.00683637,0.209086899,-1.788049,-0.004502,0.003602,0,3,52514,4.9,41,41,41,-0.000034,0.005797,0.011678,-0.010271,-0.005024,0.001137,0,0,0,0,0,0,0
1.00683637,0.209086899,-1.806001,0.003745,0.004824,0,3,52534,4.92,41,41,41,-0.000034,0.005818,0.01172,-0.01027,0.000303,0.001513,0,0,0,0,0,0,0
1.00683637,0.209086899,-1.829938,-0.002058,-0.000827,0,3,52554,4.94,41,41,41,-0.000034,0.005843,0.011771,-0.010303,-0.003478,-0.000199,0,0,0,0,0,0,0
1.00683637,0.209086899,-1.789246,-0.000989,0.004671,0,3,52574,4.96,41,41,41,-0.000034,0.005855,0.011794,-0.010344,-0.002991,0.001531,0,0,0,0,0,0,0
1.00683637,0.209086899,-1.852677,-0.001295,0.000853,0,3,52594,4.98,41,41,41,-0.000035,0.005898,0.011882,-0.010386,-0.003341,0.00046,0,0,0,0,0,0,0
1.00683637,0.209086899,-1.825151,-0.003586,0.00406,0,3,52614,5,41,41,41,-0.000035,0.005916,0.011918,-0.010453,-0.004917,0.001324,0,0,0,0,0,0,0
1.00683637,0.209086899,-1.829938,-0.001753,0.003907,0,3,52634,5.02,41,41,41,-0.000035,0.005944,0.011975,-0.010476,-0.002899,0.001278,0,0,0,0,0,0,0
1.00683637,0.209086899,-1.806001,-0.002822,0.002686,0,3,52654,5.04,41,41,41,-0.000036,0.005959,0.012004,-0.010527,-0.004201,0.000797,0,0,0,0,0,0,0
1.00683637,0.209086899,-1.797624,-0.001753,-0.000674,0,3,52674,5.06,41,41,41,-0.000036,0.005986,0.012058,-0.010535,-0.002693,-0.000064,0,0,0,0,0,0,0
1.00683637,0.209086899,-1.811985,-0.007403,-0.00098,0,3,52694,5.08,41,41,41,-0.000036,0.005992,0.01207,-0.010599,-0.00677,-0.000241,0,0,0,0,0,0,0
1.00683637,0.209086899,-1.783262,-0.00328,-0.003118,0,3,52714,5.1,41,41,41,-0.000036,0.00601,0.012108,-0.010678,-0.005466,-0.000759,0,0,0,0,0,0,0
1.00683637,0.209086899,-1.770097,-0.001753,0.005282,0,3,52734,5.12,41,41,41,-0.000036,0.006012,0.012111,-0.010727,-0.003599,0.00169,0,0,0,0,0,0,0
1.00683637,0.209086899,-1.813182,-0.001447,0.003449,0,3,52754,5.14,41,41,41,-0.000037,0.00603,0.012147,-0.010752,-0.002844,0.001013,0,0,0,0,0,0,0
1.00683637,0.209086899,-1.811985,-0.004196,-0.000521,0,3,52774,5.16,41,41,41,-0.000037,0.006055,0.012198,-0.010774,-0.004204,-0.000056,0,0,0,0,0,0,0
1.00683637,0.209086899,-1.792836,-0.000989,0.006656,0,3,52794,5.18,41,41,41,-0.000037,0.006072,0.012231,-0.010784,-0.002132,0.002156,0,0,0,0,0,0,0
1.00683637,0.209086899,-1.789246,0.001912,-0.000216,0,3,52814,5.2,41,41,41,-0.000038,0.006124,0.012336,-0.010787,-0.000943,0.00014,0,0,0,0,0,0,0
1.00683637,0.209086899,-1.825151,-0.002364,0.001769,0,3,52834,5.22,41,41,41,-0.000038,0.006118,0.012324,-0.010815,-0.003441,0.000473,0,0,0,0,0,0,0
1.00683637,0.209086899,-1.832331,-0.005876,0.004213,0,3,52854,5.24,41,41,41,-0.000038,0.006128,0.012345,-0.010872,-0.005726,0.00131,0,0,0,0,0,0,0
1.00683637,0.209086899,-1.804805,-0.004807,0.006198,0,3,52874,5.26,41,41,41,-0.000038,0.006144,0.012377,-0.010947,-0.005666,0.001867,0,0,0,0,0,0,0
1.00683637,0.209086899,-1.797624,-0.003433,0.002838,0,3,52894,5.28,41,41,41,-0.000038,0.00617,0.01243,-0.011019,-0.00512,0.000879,0,0,0,0,0,0,0
1.00683637,0.209086899,-1.845496,-0.004655,0.001617,0,3,52914,5.3,41,41,41,-0.000039,0.006194,0.012477,-0.01106,-0.004861,0.000589,0,0,0,0,0,0,0
1.00683637,0.209086899,-1.82156,-0.002364,-0.002049,0,3,52934,5.32,41,41,41,-0.000039,0.006216,0.012522,-0.011071,-0.003196,-0.000496,0,0,0,0,0,0,0
1.00683637,0.209086899,-1.826347,-0.002516,0.003907,0,3,52954,5.34,41,41,41,-0.000039,0.006233,0.012558,-0.011094,-0.003356,0.001378,0,0,0,0,0,0,0
1.00683637,0.209086899,-1.810789,-0.004196,0.001158,0,3,52974,5.36,41,41,41,-0.000039,0.006246,0.012582,-0.011146,-0.004989,0.000307,0,0,0,0,0,0,0
1.00683637,0.209086899,-1.796427,-0.002516,0.004976,0,3,52994,5.38,41,41,41,-0.000039,0.006252,0.012594,-0.01117,-0.003324,0.001521,0,0,0,0,0,0,0
1.00683637,0.209086899,-1.820363,-0.000684,0.001158,0,3,53014,5.4,41,41,41,-0.00004,0.006285,0.01266,-0.011199,-0.002814,0.000465,0,0,0,0,0,0,0
1.00683637,0.209086899,-1.809592,-0.000073,0.00574,0,3,53034,5.42,41,41,41,-0.00004,0.00629,0.012672,-0.011212,-0.001905,0.001735,0,0,0,0,0,0,0
1.00683637,0.209086899,-1.826347,-0.003738,0.000395,0,3,53054,5.44,41,41,41,-0.00004,0.006306,0.012704,-0.011255,-0.004584,0.00007,0,0,0,0,0,0,0
1.00683637,0.209086899,-1.780868,-0.003127,0.002228,0,3,53074,5.46,41,41,41,-0.00004,0.006317,0.012725,-0.011336,-0.005322,0.000753,0,0,0,0,0,0,0
1.00683637,0.209086899,-1.807198,-0.00328,0.000242,0,3,53094,5.48,41,41,41,-0.00004,0.00633,0.012753,-0.011402,-0.005053,0.000112,0,0,0,0,0,0,0
1.00683637,0.209086899,-1.801214,-0.000837,0.001006,0,3,53114,5.5,41,41,41,-0.000041,0.006357,0.012806,-0.011428,-0.002834,0.00051,0,0,0,0,0,0,0
1.00683637,0.209086899,-1.816773,-0.000531,-0.003728,0,3,53134,5.52,41,41,41,-0.000041,0.006365,0.012823,-0.011482,-0.004167,0.00134,0,0,0,0,0,0,0
1.00683637,0.209086899,-1.796427,-0.003127,0.003297,0,3,53154,5.54,41,41,41,-0.000041,0.00637,0.012832,-0.011506,-0.003699,0.000894,0,0,0,0,0,0,0
1.00683637,0.209086899,-1.808395,-0.004655,0.001158,0,3,53174,5.56,41,41,41,-0.000041,0.006394,0.01288,-0.011536,-0.004685,0.00045,0,0,0,0,0,0,0
1.00683637,0.209086899,-1.828741,-0.003433,0.002991,0,3,53194,5.58,41,41,41,-0.000041,0.006394,0.012882,-0.011623,-0.005624,0.000867,0,0,0,0,0,0,0
1.00683637,0.209086899,-1.815576,-0.000073,0.003144,0,3,53214,5.6,41,41,41,-0.000041,0.006403,0.012899,-0.011644,-0.002294,0.000932,0,0,0,0,0,0,0
1.00683637,0.209086899,-1.811985,-0.0016,0.000089,0,3,53234,5.62,41,41,41,-0.000041,0.006426,0.012945,-0.011668,-0.003191,0.00012,0,0,0,0,0,0,0
1.00683637,0.209086899,-1.82156,-0.003586,-0.00098,0,3,53254,5.64,41,41,41,-0.000042,0.006431,0.012955,-0.011693,-0.004163,-0.000266,0,0,0,0,0,0,0
1.00683637,0.209086899,-1.834725,-0.000837,-0.000827,0,3,53274,5.66,41,41,41,-0.000042,0.006453,0.012999,-0.011728,-0.003231,-0.000038,0,0,0,0,0,0,0
1.00683637,0.209086899,-1.803608,-0.000837,0.000853,0,3,53294,5.68,41,41,41,-0.000042,0.006461,0.013017,-0.011722,-0.002004,0.000335,0,0,0,0,0,0,0
1.00683637,0.209086899,-1.835922,-0.003586,0.001617,0,3,53314,5.7,41,41,41,-0.000042,0.006472,0.013038,-0.011819,-0.006064,0.000542,0,0,0,0,0,0,0
1.00683637,0.209086899,-1.811985,-0.006334,-0.000674,0,3,53334,5.72,41,41,41,-0.000042,0.006481,0.013056,-0.011875,-0.003722,0.000373,0,0,0,0,0,0,0
1.00683637,0.209086899,-1.815576,-0.006182,-0.002354,0,3,53354,5.74,41,41,41,-0.000042,0.006484,0.013062,-0.011963,-0.007151,-0.000727,0,0,0,0,0,0,0
1.00683637,0.209086899,-1.820363,-0.005265,0.000853,0,3,53374,5.76,41,41,41,-0.000042,0.006483,0.01306,-0.012017,-0.005676,0.000326,0,0,0,0,0,0,0
1.00683637,0.209086899,-1.810789,-0.006334,0.001769,0,3,53394,5.78,41,41,41,-0.000042,0.006489,0.013073,-0.012126,-0.007667,0.000558,0,0,0,0,0,0,0
1.00683637,0.209086899,-1.814379,-0.00496,0.003907,0,3,53414,5.8,41,41,41,-0.000043,0.006516,0.013127,-0.012194,-0.005833,0.001341,0,0,0,0,0,0,0
1.00683637,0.209086899,-1.823954,-0.001906,0.004824,0,3,53434,5.82,41,41,41,-0.000043,0.006534,0.013163,-0.01227,-0.006201,0.001144,0,0,0,0,0,0,0
1.00683637,0.209086899,-1.829938,-0.000531,0.002075,0,3,53454,5.84,41,41,41,-0.000043,0.006569,0.013233,-0.012299,-0.002882,0.000797,0,0,0,0,0,0,0
1.00683637,0.209086899,-1.79164,0.001607,0.002228,0,3,53474,5.86,41,41,41,-0.000044,0.006591,0.013277,-0.012335,-0.002132,0.000773,0,0,0,0,0,0,0
1.00683637,0.209086899,-1.803608,0.001607,0.002075,0,3,53494,5.88,41,41,41,-0.000044,0.006623,0.013342,-0.012328,-0.000928,0.000817,0,0,0,0,0,0,0
1.00683637,0.209086899,-1.825151,-0.006029,0.007573,0,3,53514,5.9,41,41,41,-0.000044,0.006632,0.01336,-0.012387,-0.005937,0.002275,0,0,0,0,0,0,0
1.00683637,0.209086899,-1.829938,-0.003433,-0.002201,0,3,53534,5.92,41,41,41,-0.000045,0.006664,0.013426,-0.012415,-0.004335,-0.000635,0,0,0,0,0,0,0
1.00683637,0.209086899,-1.825151,-0.001753,0.002838,0,3,53554,5.94,41,41,41,-0.000044,0.006647,0.013391,-0.012451,-0.003612,0.000784,0,0,0,0,0,0,0
1.00683637,0.209086899,-1.828741,-0.003586,0.002838,0,3,53574,5.96,41,41,41,-0.000045,0.006671,0.013439,-0.012509,-0.005045,0.000973,0,0,0,0,0,0,0
1.00683637,0.209086899,-1.797624,-0.001906,0.003755,0,3,53594,5.98,41,41,41,-0.000045,0.006682,0.013461,-0.01253,-0.00323,0.001126,0,0,0,0,0,0,0
1.00683637,0.209086899,-1.823954,-0.000378,0.001922,0,3,53614,6,41,41,41,-0.000045,0.006702,0.013501,-0.012521,-0.001788,0.000628,0,0,0,0,0,0,0
1.00683637,0.209086899,-1.790443,-0.005265,0.001311,0,3,53634,6.02,41,41,41,-0.000045,0.006712,0.013522,-0.012558,-0.00529,0.000416,0,0,0,0,0,0,0
1.00683637,0.209086899,-1.819166,-0.002822,0.004366,0,3,53654,6.04,41,41,41,-0.000045,0.006723,0.013544,-0.012623,-0.004851,0.001368,0,0,0,0,0,0,0
1.00683637,0.209086899,-1.806001,-0.00496,-0.000674,0,3,53674,6.06,41,41,41,-0.000046,0.006745,0.013589,-0.012651,-0.004982,-0.000166,0,0,0,0,0,0,0
1.00683637,0.209086899,-1.803608,-0.004044,-0.000827,0,3,53694,6.08,41,41,41,-0.000046,0.00675,0.013598,-0.012713,-0.005552,-0.000193,0,0,0,0,0,0,0
1.00683637,0.209086899,-1.797624,0.00008,0.005587,0,3,53713,6.099,41,41,41,-0.000046,0.00676,0.013618,-0.012755,-0.002868,0.001795,0,0,0,0,0,0,0
1.00683637,0.209086899,-1.806001,-0.000226,0.001311,0,3,53734,6.12,41,41,41,-0.000046,0.006783,0.013665,-0.012757,-0.003139,0.000262,0,0,0,0,0,0,0
1.00683637,0.209086899,-1.826347,-0.005724,0.001311,0,3,53754,6.14,41,41,41,-0.000046,0.006792,0.013683,-0.012785,-0.005281,0.00044,0,0,0,0,0,0,0
1.00683637,0.209086899,-1.822757,-0.00832,0.001922,0,3,53774,6.16,41,41,41,-0.000047,0.006807,0.013713,-0.012869,-0.007982,0.000656,0,0,0,0,0,0,0
1.00683637,0.209086899,-1.79882,-0.0016,-0.000369,0,3,53794,6.18,41,41,41,-0.000047,0.006813,0.013725,-0.012943,-0.004784,-0.000125,0,0,0,0,0,0,0
1.00683637,0.209086899,-1.814379,-0.00496,0.004671,0,3,53814,6.2,41,41,41,-0.000047,0.006824,0.013747,-0.013003,-0.00572,0.001516,0,0,0,0,0,0,0
1.00683637,0.209086899,-1.820363,-0.005265,0.004824,0,3,53834,6.22,41,41,41,-0.000047,0.006856,0.013812,-0.013059,-0.004505,0.000461,0,0,0,0,0,0,0
1.00683637,0.209086899,-1.834725,-0.002364,0.002228,0,3,53854,6.24,41,41,41,-0.000048,0.006882,0.013863,-0.013116,-0.004611,0.000835,0,0,0,0,0,0,0
1.00683637,0.209086899,-1.807198,-0.005265,0.001769,0,3,53874,6.26,41,41,41,-0.000048,0.006903,0.013907,-0.013212,-0.006988,0.000627,0,0,0,0,0,0,0
1.00683637,0.209086899,-1.820363,-0.001906,0.000548,0,3,53894,6.28,41,41,41,-0.000048,0.006902,0.013904,-0.013262,-0.004272,0.000092,0,0,0,0,0,0,0
1.00683637,0.209086899,-1.820363,-0.00328,0.004671,0,3,53914,6.3,41,41,41,-0.000048,0.006896,0.013893,-0.013304,-0.00451,0.001359,0,0,0,0,0,0,0
1.006836393,0.209086869,-1.806001,-0.002975,0.00574,0,3,53934,6.32,62,62,62,-0.000048,0.006921,0.013942,-0.013373,-0.006089,0.000455,0,0,0,0,0,0,0
1.006836393,0.209086869,-1.819166,-0.001906,0.00238,0,3,53954,6.34,62,62,62,-0.000049,0.006949,0.014,-0.013416,-0.004047,0.00091,0,0,0,0,0,0,0
1.006836393,0.209086869,-1.803608,-0.003891,-0.000063,0,3,53974,6.36,62,62,62,-0.000049,0.006965,0.014031,-0.013457,-0.004963,0.000015,0,0,0,0,0,0,0
1.006836393,0.209086869,-1.820363,-0.003433,0.001617,0,3,53994,6.38,62,62,62,-0.000049,0.006968,0.014038,-0.013468,-0.003888,0.000517,0,0,0,0,0,0,0
1.006836393,0.209086869,-1.803608,-0.002516,-0.000521,0,3,54014,6.4,62,62,62,-0.000049,0.00699,0.014082,-0.013471,-0.003323,-0.000031,0,0,0,0,0,0,0
1.006836393,0.209086869,-1.802411,-0.002975,0.003907,0,3,54034,6.42,62,62,62,-0.000049,0.007,0.014101,-0.013512,-0.005228,-0.000168,0,0,0,0,0,0,0
1.006836393,0.209086869,-1.819166,-0.005571,0.002686,0,3,54054,6.44,62,62,62,-0.000049,0.007012,0.014127,-0.013572,-0.006158,0.000935,0,0,0,0,0,0,0
1.006836393,0.209086869,-1.803608,-0.004502,0.003297,0,3,54074,6.46,62,62,62,-0.00005,0.007031,0.014165,-0.013632,-0.005674,0.001055,0,0,0,0,0,0,0
1.006836393,0.209086869,-1.803608,-0.004044,0.004671,0,3,54094,6.48,62,62,62,-0.00005,0.007065,0.014232,-0.013654,-0.004353,0.001577,0,0,0,0,0,0,0
1.006836393,0.209086869,-1.822757,-0.000531,-0.002049,0,3,54114,6.5,62,62,62,-0.000051,0.0071,0.014303,-0.013702,-0.003794,-0.000491,0,0,0,0,0,0,0
1.006836393,0.209086869,-1.81797,-0.000378,0.003755,0,3,54134,6.52,62,62,62,-0.000051,0.007102,0.014308,-0.013701,-0.002581,0.000469,0,0,0,0,0,0,0
1.006836393,0.209086869,-1.792836,-0.000531,0.001158,0,3,54153,6.539,62,62,62,-0.000051,0.007123,0.01435,-0.013694,-0.002145,0.000477,0,0,0,0,0,0,0
1.006836393,0.209086869,-1.820363,-0.001906,-0.000674,0,3,54173,6.559,62,62,62,-0.000051,0.007144,0.014392,-0.013722,-0.0038,-0.000081,0,0,0,0,0,0,0
1.006836393,0.209086869,-1.801214,-0.002669,0.003602,0,3,54193,6.579,62,62,62,-0.000051,0.007131,0.014367,-0.013728,-0.003347,0.000995,0,0,0,0,0,0,0
1.006836393,0.209086869,-1.835922,-0.00664,0.006198,0,3,54213,6.599,62,62,62,-0.000051,0.007146,0.014396,-0.013791,-0.006585,0.001886,0,0,0,0,0,0,0
1.006836393,0.209086869,-1.813182,-0.004807,0.000548,0,3,54234,6.62,62,62,62,-0.000052,0.007182,0.014468,-0.013878,-0.006712,0.000265,0,0,0,0,0,0,0
1.006836393,0.209086869,-1.826347,-0.002975,0.001006,0,3,54253,6.639,62,62,62,-0.000052,0.007192,0.014489,-0.013907,-0.004265,0.000366,0,0,0,0,0,0,0
1.006836393,0.209086869,-1.849087,-0.002211,0.003144,0,3,54274,6.66,62,62,62,-0.000052,0.007194,0.014493,-0.013949,-0.00417,0.000931,0,0,0,0,0,0,0
1.006836393,0.209086869,-1.814379,-0.000073,0.001464,0,3,54294,6.68,62,62,62,-0.000052,0.007213,0.01453,-0.013965,-0.002613,0.000499,0,0,0,0,0,0,0
1.006836393,0.209086869,-1.803608,-0.001447,0.001158,0,3,54314,6.7,62,62,62,-0.000053,0.007235,0.014575,-0.01398,-0.003214,0.000482,0,0,0,0,0,0,0
1.006836393,0.209086869,-1.807198,-0.000684,0.000242,0,3,54334,6.72,62,62,62,-0.000053,0.007248,0.014602,-0.014002,-0.002945,0.000646,0,0,0,0,0,0,0
1.006836393,0.209086869,-1.811985,-0.005113,0.003602,0,3,54354,6.74,62,62,62,-0.000053,0.007258,0.014622,-0.014027,-0.00502,0.001103,0,0,0,0,0,0,0
1.006836393,0.209086869,-1.810789,-0.007403,0.003144,0,3,54374,6.76,62,62,62,-0.000053,0.007271,0.014649,-0.014069,-0.006519,0.00094,0,0,0,0,0,0,0
1.006836393,0.209086869,-1.827544,-0.004502,0.000089,0,3,54394,6.78,62,62,62,-0.000053,0.00729,0.014687,-0.01413,-0.00591,0.000087,0,0,0,0,0,0,0
1.006836393,0.209086869,-1.82156,-0.004044,0.006504,0,3,54414,6.8,62,62,62,-0.000054,0.007306,0.014718,-0.014153,-0.004393,0.002081,0,0,0,0,0,0,0
1.006836393,0.209086869,-1.794033,-0.001295,0.00238,0,3,54434,6.82,62,62,62,-0.000054,0.007345,0.014798,-0.014161,-0.002766,0.000877,0,0,0,0,0,0,0
1.006836393,0.209086869,-1.815576,-0.006945,0.0007,0,3,54454,6.84,62,62,62,-0.000055,0.007367,0.014841,-0.014202,-0.006427,0.000296,0,0,0,0,0,0,0
1.006836393,0.209086869,-1.809592,-0.000989,-0.000063,0,3,54474,6.86,62,62,62,-0.000055,0.007373,0.014853,-0.014253,-0.004077,0.000002,0,0,0,0,0,0,0
1.006836393,0.209086869,-1.809592,-0.000226,0.001922,0,3,54494,6.88,62,62,62,-0.000055,0.007374,0.014855,-0.014301,-0.003571,0.000594,0,0,0,0,0,0,0
1.006836393,0.209086869,-1.816773,-0.004502,0.002838,0,3,54514,6.9,62,62,62,-0.000055,0.007367,0.01484,-0.014353,-0.005565,0.000738,0,0,0,0,0,0,0
1.006836393,0.209086869,-1.819166,-0.004807,0.001617,0,3,54534,6.92,62,62,62,-0.000055,0.007384,0.014875,-0.014435,-0.006605,0.000556,0,0,0,0,0,0,0
1.006836393,0.209086869,-1.809592,-0.003433,0.006045,0,3,54554,6.94,62,62,62,-0.000055,0.007394,0.014895,-0.014476,-0.004672,0.001852,0,0,0,0,0,0,0
1.006836393,0.209086869,-1.840709,-0.001447,0.003907,0,3,54574,6.96,62,62,62,-0.000055,0.007429,0.014965,-0.014512,-0.00374,0.001275,0,0,0,0,0,0,0
1.006836393,0.209086869,-1.809592,-0.002211,0.001769,0,3,54594,6.98,62,62,62,-0.000056,0.007463,0.015035,-0.014571,-0.004846,0.000686,0,0,0,0,0,0,0
1.006836393,0.209086869,-1.82156,-0.001906,0.002991,0,3,54614,7,62,62,62,-0.000056,0.007481,0.01507,-0.014629,-0.004598,0.000982,0,0,0,0,0,0,0
1.006836393,0.209086869,-1.802411,-0.002822,0.001311,0,3,54634,7.02,62,62,62,-0.000057,0.0075,0.015108,-0.014658,-0.004302,0.000912,0,0,0,0,0,0,0
1.006836393,0.209086869,-1.779671,-0.002516,0.002686,0,3,54654,7.04,62,62,62,-0.000057,0.007518,0.015145,-0.014691,-0.004235,0.000866,0,0,0,0,0,0,0
1.006836393,0.209086869,-1.792836,-0.00328,-0.001438,0,3,54674,7.06,62,62,62,-0.000057,0.007531,0.015171,-0.014739,-0.005154,-0.000414,0,0,0,0,0,0,0
1.006836393,0.209086869,-1.79164,-0.004502,0.002075,0,3,54693,7.079,62,62,62,-0.000057,0.007535,0.01518,-0.01478,-0.005366,0.000709,0,0,0,0,0,0,0
1.006836393,0.209086869,-1.802411,-0.002211,0.000089,0,3,54714,7.1,62,62,62,-0.000057,0.007549,0.015207,-0.014812,-0.004168,0.000066,0,0,0,0,0,0,0
1.006836393,0.209086869,-1.804805,-0.004044,0.004366,0,3,54734,7.12,62,62,62,-0.000057,0.007552,0.015215,-0.014848,-0.005549,0.00102,0,0,0,0,0,0,0
1.006836393,0.209086869,-1.829938,-0.0016,0.002075,0,3,54754,7.14,62,62,62,-0.000058,0.007584,0.015278,-0.014893,-0.004203,0.000781,0,0,0,0,0,0,0
1.006836393,0.209086869,-1.81797,-0.004655,0.00238,0,3,54774,7.16,62,62,62,-0.000058,0.007601,0.015313,-0.014909,-0.004746,0.00078,0,0,0,0,0,0,0
1.006836393,0.209086869,-1.797624,-0.003127,0.001464,0,3,54793,7.179,62,62,62,-0.000058,0.007615,0.01534,-0.014923,-0.00406,0.000475,0,0,0,0,0,0,0
1.006836393,0.209086869,-1.804805,0.00008,-0.001132,0,3,54813,7.199,62,62,62,-0.000058,0.007626,0.015363,-0.014949,-0.003052,-0.000295,0,0,0,0,0,0,0
1.006836393,0.209086869,-1.81797,-0.002822,-0.001438,0,3,54834,7.22,62,62,62,-0.000058,0.007625,0.015361,-0.014988,-0.004759,-0.000407,0,0,0,0,0,0,0
1.006836393,0.209086869,-1.84789,-0.002211,0.001158,0,3,54853,7.239,62,62,62,-0.000058,0.007627,0.015365,-0.015041,-0.004745,0.000411,0,0,0,0,0,0,0
1.006836393,0.209086869,-1.82156,-0.001447,-0.00098,0,3,54873,7.259,62,62,62,-0.000059,0.007647,0.015406,-0.015095,-0.004547,-0.000167,0,0,0,0,0,0,0
1.006836393,0.209086869,-1.79164,-0.000378,0.001769,0,3,54893,7.279,62,62,62,-0.000059,0.00765,0.015411,-0.015108,-0.002813,0.000579,0,0,0,0,0,0,0
1.006836393,0.209086869,-1.826347,-0.002211,0.007114,0,3,54913,7.299,62,62,62,-0.000059,0.007655,0.015421,-0.015163,-0.00457,0.002133,0,0,0,0,0,0,0
1.006836393,0.209086869,-1.79882,0.000996,0.004518,0,3,54934,7.32,62,62,62,-0.000059,0.007691,0.015493,-0.015186,-0.002371,0.001441,0,0,0,0,0,0,0
1.006836393,0.209086869,-1.794033,-0.003738,0.006045,0,3,54953,7.339,62,62,62,-0.00006,0.007727,0.015567,-0.01523,-0.005017,0.001978,0,0,0,0,0,0,0
1.006836393,0.209086869,-1.802411,-0.002669,0.003144,0,3,54973,7.359,62,62,62,-0.000061,0.007766,0.015644,-0.015266,-0.004443,0.00106,0,0,0,0,0,0,0
1.006836393,0.209086869,-1.813182,-0.00496,0.004366,0,3,54994,7.38,62,62,62,-0.000061,0.007785,0.015683,-0.01532,-0.005943,0.001369,0,0,0,0,0,0,0
1.006836393,0.209086869,-1.796427,-0.004502,0.006198,0,3,55014,7.4,62,62,62,-0.000061,0.007813,0.01574,-0.01537,-0.005535,0.00196,0,0,0,0,0,0,0
1.006836393,0.209086869,-1.829938,-0.003127,0.002686,0,3,55034,7.42,62,62,62,-0.000062,0.007841,0.015796,-0.015377,-0.002766,0.00001,0,0,0,0,0,0,0
1.006836393,0.209086869,-1.82156,-0.000989,0.0007,0,3,55054,7.44,62,62,62,-0.000062,0.007852,0.015818,-0.015394,-0.003269,0.000301,0,0,0,0,0,0,0
1.006836393,0.209086869,-1.82156,-0.002516,0.000548,0,3,55074,7.46,62,62,62,-0.000062,0.007864,0.015842,-0.015453,-0.005168,0.000239,0,0,0,0,0,0,0
1.006836393,0.209086869,-1.808395,0.002065,-0.004034,0,3,55094,7.48,62,62,62,-0.000062,0.007879,0.015872,-0.015471,-0.002161,-0.001114,0,0,0,0,0,0,0
1.006836393,0.209086869,-1.838316,-0.00328,0.000548,0,3,55114,7.5,62,62,62,-0.000062,0.007868,0.015851,-0.015524,-0.005326,0.000198,0,0,0,0,0,0,0
1.006836393,0.209086869,-1.822757,-0.005724,0.0007,0,3,55134,7.52,62,62,62,-0.000062,0.007871,0.015856,-0.015537,-0.004175,0.000559,0,0,0,0,0,0,0
1.006836393,0.209086869,-1.792836,0.000538,0.004366,0,3,55154,7.54,62,62,62,-0.000062,0.007884,0.015884,-0.015618,-0.003314,0.001351,0,0,0,0,0,0,0
1.006836393,0.209086869,-1.813182,-0.001142,0.001311,0,3,55174,7.56,62,62,62,-0.000063,0.007899,0.015912,-0.015636,-0.003395,0.000374,0,0,0,0,0,0,0
1.006836393,0.209086869,-1.82156,-0.004196,0.002075,0,3,55194,7.58,62,62,62,-0.000063,0.007913,0.01594,-0.015597,-0.003158,0.000701,0,0,0,0,0,0,0
1.006836393,0.209086869,-1.79164,-0.002822,0.003449,0,3,55214,7.6,62,62,62,-0.000063,0.007944,0.016004,-0.015633,-0.004551,0.00123,0,0,0,0,0,0,0
1.006836393,0.209086869,-1.804805,-0.002364,-0.000521,0,3,55234,7.62,62,62,62,-0.000064,0.00796,0.016035,-0.015635,-0.003053,0.000391,0,0,0,0,0,0,0
1.006836393,0.209086869,-1.835922,-0.006182,0.002533,0,3,55254,7.64,62,62,62,-0.000064,0.007961,0.016038,-0.015689,-0.006381,0.000748,0,0,0,0,0,0,0
1.006836393,0.209086869,-1.825151,-0.007403,0.00574,0,3,55274,7.66,62,62,62,-0.000064,0.007977,0.01607,-0.015798,-0.008542,0.001786,0,0,0,0,0,0,0
1.006836393,0.209086869,-1.813182,-0.007862,-0.002812,0,3,55294,7.68,62,62,62,-0.000064,0.007994,0.016104,-0.015893,-0.008729,-0.000898,0,0,0,0,0,0,0
1.006836393,0.209086869,-1.828741,-0.005113,0.003144,0,3,55314,7.7,62,62,62,-0.000064,0.007974,0.016065,-0.015969,-0.00673,0.000888,0,0,0,0,0,0,0
1.006836393,0.209086869,-1.797624,-0.005418,0.005129,0,3,55334,7.72,62,62,62,-0.000064,0.007997,0.016111,-0.016025,-0.006275,0.001646,0,0,0,0,0,0,0
1.006836393,0.209086869,-1.803608,-0.0016,-0.00098,0,3,55354,7.74,62,62,62,-0.000065,0.008013,0.016143,-0.016035,-0.003531,-0.000334,0,0,0,0,0,0,0
1.006836393,0.209086869,-1.826347,-0.004196,0.000548,0,3,55374,7.76,62,62,62,-0.000064,0.008,0.016117,-0.016046,-0.004641,0.000093,0,0,0,0,0,0,0
1.006836393,0.209086869,-1.806001,-0.002822,0.000242,0,3,55394,7.78,62,62,62,-0.000064,0.008007,0.016131,-0.016096,-0.005155,0.000125,0,0,0,0,0,0,0
1.006836393,0.209086869,-1.822757,-0.000837,0.001769,0,3,55414,7.8,62,62,62,-0.000065,0.008015,0.016147,-0.016151,-0.004343,0.000593,0,0,0,0,0,0,0
1.006836393,0.209086869,-1.814379,-0.001295,0.002991,0,3,55434,7.82,62,62,62,-0.000065,0.008032,0.016181,-0.016187,-0.003977,0.000985,0,0,0,0,0,0,0
1.006836393,0.209086869,-1.838316,-0.0016,0.001006,0,3,55454,7.84,62,62,62,-0.000065,0.008055,0.016228,-0.016197,-0.00349,0.000394,0,0,0,0,0,0,0
1.006836393,0.209086869,-1.79164,-0.000684,0.002533,0,3,55474,7.86,62,62,62,-0.000066,0.008078,0.016274,-0.016209,-0.00307,0.000917,0,0,0,0,0,0,0
1.006836393,0.209086869,-1.801214,-0.000378,0.001922,0,3,55494,7.88,62,62,62,-0.000066,0.008094,0.016306,-0.016183,-0.001906,0.000616,0,0,0,0,0,0,0
1.006836393,0.209086869,-1.810789,-0.006182,0.003755,0,3,55514,7.9,62,62,62,-0.000066,0.008107,0.016332,-0.016222,-0.006213,0.001178,0,0,0,0,0,0,0
1.006836393,0.209086869,-1.826347,-0.003891,0.00574,0,3,55534,7.92,62,62,62,-0.000066,0.008132,0.016382,-0.016278,-0.005587,0.001816,0,0,0,0,0,0,0
1.006836393,0.209086869,-1.823954,-0.005876,0.002838,0,3,55553,7.939,62,62,62,-0.000067,0.008176,0.01647,-0.016315,-0.00609,0.001026,0,0,0,0,0,0,0
1.006836393,0.209086869,-1.810789,-0.003586,0.002686,0,3,55573,7.959,62,62,62,-0.000067,0.008193,0.016506,-0.016337,-0.004638,0.000852,0,0,0,0,0,0,0
1.006836393,0.209086869,-1.816773,-0.002822,0.002838,0,3,55593,7.979,62,62,62,-0.000068,0.008218,0.016556,-0.0164,-0.005472,0.000976,0,0,0,0,0,0,0
1.006836393,0.209086869,-1.822757,-0.002822,0.000242,0,3,55613,7.999,62,62,62,-0.000068,0.008242,0.016604,-0.01647,-0.005745,0.000169,0,0,0,0,0,0,0
1.006836393,0.209086869,-1.816773,0.000385,0.000853,0,3,55634,8.02,62,62,62,-0.000069,0.008269,0.016658,-0.016506,-0.003378,0.000467,0,0,0,0,0,0,0
1.006836393,0.209086869,-1.789246,-0.002669,0.000548,0,3,55653,8.039,62,62,62,-0.000069,0.008285,0.01669,-0.016503,-0.003664,0.000248,0,0,0,0,0,0,0
1.006836393,0.209086869,-1.820363,-0.006029,0.002686,0,3,55673,8.059,62,62,62,-0.000069,0.008297,0.016715,-0.016545,-0.006337,0.00089,0,0,0,0,0,0,0
1.006836393,0.209086869,-1.790443,-0.002975,0.006198,0,3,55693,8.079,62,62,62,-0.00007,0.00832,0.01676,-0.016622,-0.005802,0.001967,0,0,0,0,0,0,0
1.006836393,0.209086869,-1.828741,-0.0016,0.002991,0,3,55713,8.099,62,62,62,-0.00007,0.008338,0.016798,-0.016656,-0.004123,0.000855,0,0,0,0,0,0,0
1.006836393,0.209086869,-1.79882,0.000996,0.001006,0,3,55734,8.12,62,62,62,-0.000071,0.00838,0.016881,-0.016656,-0.00212,0.000559,0,0,0,0,0,0,0
1.006836393,0.209086869,-1.808395,-0.005265,0.001311,0,3,55753,8.139,62,62,62,-0.000071,0.008395,0.016912,-0.016703,-0.006225,0.000465,0,0,0,0,0,0,0
1.006836393,0.209086869,-1.826347,-0.007556,0.000548,0,3,55773,8.159,62,62,62,-0.000071,0.008395,0.016912,-0.016793,-0.008435,0.000117,0,0,0,0,0,0,0
1.006836393,0.209086869,-1.809592,-0.003586,0.003755,0,3,55793,8.179,62,62,62,-0.000071,0.008405,0.016933,-0.016855,-0.00579,0.00121,0,0,0,0,0,0,0
1.006836393,0.209086869,-1.779671,-0.003433,0.00406,0,3,55813,8.199,62,62,62,-0.000072,0.008437,0.016998,-0.016891,-0.005024,0.001367,0,0,0,0,0,0,0
1.006836393,0.209086869,-1.822757,-0.001906,0.000853,0,3,55834,8.22,62,62,62,-0.000072,0.008454,0.01703,-0.016915,-0.004121,0.000251,0,0,0,0,0,0,0
1.006836393,0.209086869,-1.809592,-0.002669,0.001311,0,3,55853,8.239,62,62,62,-0.000072,0.008465,0.017054,-0.01694,-0.004458,0.000468,0,0,0,0,0,0,0
1.006836393,0.209086869,-1.816773,-0.003891,-0.001285,0,3,55873,8.259,62,62,62,-0.000072,0.008473,0.01707,-0.01698,-0.005552,-0.000367,0,0,0,0,0,0,0
1.006836393,0.209086869,-1.813182,-0.000837,-0.000674,0,3,55894,8.28,62,62,62,-0.000072,0.008459,0.01704,-0.017017,-0.004083,-0.000281,0,0,0,0,0,0,0
1.006836393,0.209086869,-1.826347,-0.000531,0.004518,0,3,55914,8.3,62,62,62,-0.000072,0.008463,0.017049,-0.016993,-0.002051,0.001431,0,0,0,0,0,0,0
1.006836393,0.209086869,-1.81797,0.002981,0.003144,0,3,55934,8.32,62,62,62,-0.000073,0.008495,0.017114,-0.017048,-0.006355,0.000468,0,0,0,0,0,0,0
1.006836393,0.209086869,-1.816773,-0.004196,0.006809,0,3,55954,8.34,62,62,62,-0.000073,0.008514,0.017152,-0.017048,-0.004263,0.002163,0,0,0,0,0,0,0
1.006836393,0.209086869,-1.819166,-0.002516,0.001464,0,3,55974,8.36,62,62,62,-0.000073,0.008545,0.017215,-0.017079,-0.004591,0.000478,0,0,0,0,0,0,0
1.006836393,0.209086869,-1.800017,-0.004502,0.003297,0,3,55994,8.38,62,62,62,-0.000074,0.008562,0.017248,-0.017142,-0.00629,0.001085,0,0,0,0,0,0,0
1.006836393,0.209086869,-1.835922,-0.002211,0.0007,0,3,56014,8.4,62,62,62,-0.000074,0.00858,0.017285,-0.017172,-0.004452,0.00025,0,0,0,0,0,0,0
1.006836393,0.209086869,-1.810789,-0.003738,0.001006,0,3,56034,8.42,62,62,62,-0.000074,0.008592,0.017308,-0.0172,-0.005097,0.000375,0,0,0,0,0,0,0
1.006836388,0.209086869,-1.831135,-0.001906,0.001464,0,3,56054,8.44,83,83,83,-0.000074,0.008607,0.017339,-0.01722,-0.004049,0.000531,0,0,0,0,0,0,0
1.006836388,0.209086869,-1.803608,-0.004655,0.004824,0,3,56074,8.46,83,83,83,-0.000075,0.008614,0.017353,-0.017272,-0.005992,0.001463,0,0,0,0,0,0,0
1.006836388,0.209086869,-1.810789,-0.001906,-0.004034,0,3,56093,8.479,83,83,83,-0.000075,0.008636,0.017397,-0.017302,-0.004548,-0.00119,0,0,0,0,0,0,0
1.006836388,0.209086869,-1.811985,-0.003433,0.004976,0,3,56113,8.499,83,83,83,-0.000075,0.008634,0.017395,-0.017315,-0.004407,0.001621,0,0,0,0,0,0,0
1.006836388,0.209086869,-1.801214,-0.002822,0.001006,0,3,56134,8.52,83,83,83,-0.000075,0.008658,0.017443,-0.017336,-0.004503,0.000333,0,0,0,0,0,0,0
1.006836388,0.209086869,-1.822757,-0.004349,0.006045,0,3,56154,8.54,83,83,83,-0.000075,0.008661,0.017447,-0.017341,-0.004557,0.001809,0,0,0,0,0,0,0
1.006836388,0.209086869,-1.814379,-0.007251,0.005893,0,3,56174,8.56,83,83,83,-0.000076,0.008701,0.017528,-0.017414,-0.007739,0.00192,0,0,0,0,0,0,0
1.006836388,0.209086869,-1.79882,-0.0016,0.002075,0,3,56193,8.579,83,83,83,-0.000077,0.008746,0.01762,-0.017456,-0.004522,0.000806,0,0,0,0,0,0,0
1.006836388,0.209086869,-1.800017,-0.000073,0.003755,0,3,56213,8.599,83,83,83,-0.000077,0.008766,0.017661,-0.017443,-0.002233,0.001218,0,0,0,0,0,0,0
1.006836388,0.209086869,-1.819166,-0.005265,0.004213,0,3,56234,8.62,83,83,83,-0.000078,0.008795,0.017719,-0.017484,-0.006047,0.001382,0,0,0,0,0,0,0
1.006836388,0.209086869,-1.79164,-0.003738,-0.002049,0,3,56253,8.639,83,83,83,-0.000078,0.008818,0.017765,-0.017576,-0.007036,-0.000571,0,0,0,0,0,0,0
1.006836388,0.209086869,-1.826347,-0.003891,0.007114,0,3,56273,8.659,83,83,83,-0.000078,0.008803,0.017734,-0.017637,-0.005885,0.002087,0,0,0,0,0,0,0
1.006836388,0.209086869,-1.829938,-0.005571,0.001006,0,3,56293,8.679,83,83,83,-0.000078,0.008823,0.017775,-0.017733,-0.007861,0.000256,0,0,0,0,0,0,0
1.006836388,0.209086869,-1.820363,-0.001447,0.000395,0,3,56313,8.699,83,83,83,-0.000078,0.008827,0.017783,-0.017781,-0.004718,0.000131,0,0,0,0,0,0,0
1.006836388,0.209086869,-1.829938,-0.003433,0.001158,0,3,56334,8.72,83,83,83,-0.000078,0.008829,0.017786,-0.017782,-0.003434,-0.000093,0,0,0,0,0,0,0
1.006836388,0.209086869,-1.808395,-0.001753,0.000089,0,3,56354,8.74,83,83,83,-0.000079,0.008837,0.017803,-0.017824,-0.004359,0.000072,0,0,0,0,0,0,0
1.006836388,0.209086869,-1.81797,-0.002364,0.001617,0,3,56374,8.76,83,83,83,-0.000079,0.008858,0.017846,-0.017838,-0.004176,0.00066,0,0,0,0,0,0,0
1.006836388,0.209086869,-1.796427,-0.003433,0.002075,0,3,56394,8.78,83,83,83,-0.000079,0.008863,0.017856,-0.017868,-0.005068,0.000601,0,0,0,0,0,0,0
1.006836388,0.209086869,-1.802411,-0.002669,0.0007,0,3,56414,8.8,83,83,83,-0.000079,0.008886,0.017901,-0.017894,-0.004664,0.000336,0,0,0,0,0,0,0
1.006836388,0.209086869,-1.807198,-0.004196,-0.002354,0,3,56434,8.82,83,83,83,-0.000079,0.00889,0.01791,-0.017895,-0.003391,0.000943,0,0,0,0,0,0,0
1.006836388,0.209086869,-1.79882,-0.002058,-0.002049,0,3,56454,8.84,83,83,83,-0.000079,0.008884,0.017899,-0.017953,-0.004878,-0.000695,0,0,0,0,0,0,0
1.006836388,0.209086869,-1.831135,-0.003891,0.005282,0,3,56474,8.86,83,83,83,-0.000079,0.008887,0.017903,-0.017994,-0.005453,0.00169,0,0,0,0,0,0,0
1.006836388,0.209086869,-1.811985,-0.005113,0.005129,0,3,56494,8.88,83,83,83,-0.00008,0.008929,0.017988,-0.018045,-0.006319,0.001719,0,0,0,0,0,0,0
1.006836388,0.209086869,-1.797624,-0.000073,-0.001132,0,3,56514,8.9,83,83,83,-0.000081,0.008956,0.018043,-0.018093,-0.004225,-0.000289,0,0,0,0,0,0,0
1.006836388,0.209086869,-1.815576,-0.002822,0.004366,0,3,56534,8.92,83,83,83,-0.000081,0.008953,0.018036,-0.018103,-0.004435,0.000092,0,0,0,0,0,0,0
1.006836388,0.209086869,-1.822757,-0.000531,0.00406,0,3,56554,8.94,83,83,83,-0.000081,0.00899,0.01811,-0.018133,-0.003363,0.001385,0,0,0,0,0,0,0
1.006836388,0.209086869,-1.800017,-0.000226,0.005435,0,3,56574,8.96,83,83,83,-0.000082,0.009026,0.018184,-0.018126,-0.002512,0.0018,0,0,0,0,0,0,0
1.006836388,0.209086869,-1.816773,-0.000378,0.001922,0,3,56594,8.98,83,83,83,-0.000083,0.00906,0.018252,-0.018126,-0.002919,0.000676,0,0,0,0,0,0,0
1.006836388,0.209086869,-1.814379,0.001454,0.001617,0,3,56614,9,83,83,83,-0.000083,0.009103,0.018339,-0.018109,-0.001673,0.000775,0,0,0,0,0,0,0
1.006836388,0.209086869,-1.820363,0.000843,0.006351,0,3,56634,9.02,83,83,83,-0.000083,0.009113,0.018359,-0.018078,-0.000091,0.001912,0,0,0,0,0,0,0
1.006836388,0.209086869,-1.81797,-0.006334,-0.00159,0,3,56654,9.04,83,83,83,-0.000085,0.009192,0.018518,-0.018056,-0.005785,-0.000256,0,0,0,0,0,0,0
1.006836388,0.209086869,-1.829938,-0.003586,0.006809,0,3,56674,9.06,83,83,83,-0.000085,0.009189,0.018511,-0.018103,-0.00545,0.00206,0,0,0,0,0,0,0
1.006836388,0.209086869,-1.837119,-0.0016,0.003755,0,3,56694,9.08,83,83,83,-0.000086,0.009227,0.01859,-0.018147,-0.004613,0.001243,0,0,0,0,0,0,0
1.006836388,0.209086869,-1.786852,-0.003433,0.003907,0,3,56714,9.1,83,83,83,-0.000086,0.009257,0.018648,-0.018209,-0.005922,0.001293,0,0,0,0,0,0,0
1.006836388,0.209086869,-1.822757,-0.0016,-0.002965,0,3,56734,9.12,83,83,83,-0.000086,0.009273,0.018682,-0.018227,-0.005151,0.000628,0,0,0,0,0,0,0
1.006836388,0.209086869,-1.840709,-0.002669,0.00238,0,3,56754,9.14,83,83,83,-0.000086,0.009258,0.018651,-0.018251,-0.004348,0.000619,0,0,0,0,0,0,0
1.006836388,0.209086869,-1.81797,-0.003586,0.004213,0,3,56774,9.16,83,83,83,-0.000087,0.009281,0.018697,-0.018288,-0.005307,0.001397,0,0,0,0,0,0,0
1.006836388,0.209086869,-1.832331,-0.000378,0.001464,0,3,56794,9.18,83,83,83,-0.000087,0.009302,0.018739,-0.018278,-0.002688,0.00047,0,0,0,0,0,0,0
1.006836388,0.209086869,-1.819166,-0.001906,0.007573,0,3,56814,9.2,83,83,83,-0.000087,0.009323,0.018781,-0.018289,-0.003705,0.002415,0,0,0,0,0,0,0
1.006836388,0.209086869,-1.809592,-0.006029,0.002991,0,3,56834,9.22,83,83,83,-0.000088,0.009372,0.018882,-0.018335,-0.006735,0.00106,0,0,0,0,0,0,0
1.006836388,0.209086869,-1.81797,-0.009389,0.004824,0,3,56854,9.24,83,83,83,-0.000089,0.009396,0.018929,-0.018406,-0.008839,0.001539,0,0,0,0,0,0,0
1.006836388,0.209086869,-1.806001,-0.003738,0.001311,0,3,56873,9.259,83,83,83,-0.000089,0.009421,0.018979,-0.018445,-0.005559,0.000439,0,0,0,0,0,0,0
1.006836388,0.209086869,-1.810789,-0.001295,0.001464,0,3,56893,9.279,83,83,83,-0.00009,0.009443,0.019024,-0.018457,-0.003729,0.000585,0,0,0,0,0,0,0
1.006836388,0.209086869,-1.810789,-0.002516,0.004213,0,3,56913,9.299,83,83,83,-0.00009,0.009464,0.019065,-0.01848,-0.004501,0.001382,0,0,0,0,0,0,0
1.006836388,0.209086869,-1.806001,-0.004807,0.002228,0,3,56934,9.32,83,83,83,-0.00009,0.009472,0.019082,-0.018506,-0.005641,0.000596,0,0,0,0,0,0,0
1.006836388,0.209086869,-1.794033,-0.00328,-0.002354,0,3,56953,9.339,83,83,83,-0.00009,0.009485,0.019109,-0.018546,-0.005556,-0.000659,0,0,0,0,0,0,0
1.006836388,0.209086869,-1.806001,0.000691,0.005129,0,3,56973,9.359,83,83,83,-0.000091,0.009495,0.019128,-0.018543,-0.002324,0.001701,0,0,0,0,0,0,0
1.006836388,0.209086869,-1.820363,-0.000226,0.006504,0,3,56993,9.379,83,83,83,-0.000091,0.009517,0.019173,-0.018545,-0.002776,0.001976,0,0,0,0,0,0,0
1.006836388,0.209086869,-1.813182,-0.006487,0.00406,0,3,57013,9.399,83,83,83,-0.000092,0.009556,0.019252,-0.018565,-0.006192,0.001338,0,0,0,0,0,0,0
1.006836388,0.209086869,-1.820363,-0.002516,0.006045,0,3,57034,9.42,83,83,83,-0.000093,0.009598,0.019337,-0.018571,-0.003933,0.002036,0,0,0,0,0,0,0
1.006836388,0.209086869,-1.837119,0.000385,0.001464,0,3,57053,9.439,83,83,83,-0.000093,0.009634,0.019409,-0.018591,-0.003228,0.000527,0,0,0,0,0,0,0
1.006836388,0.209086869,-1.82156,-0.004196,0.006809,0,3,57073,9.459,83,83,83,-0.000094,0.009652,0.019446,-0.018607,-0.004972,0.002154,0,0,0,0,0,0,0
1.006836388,0.209086869,-1.816773,-0.004044,0.003297,0,3,57093,9.479,83,83,83,-0.000094,0.009692,0.019525,-0.018651,-0.0058,0.001093,0,0,0,0,0,0,0
1.006836388,0.209086869,-1.816773,-0.004044,0.004518,0,3,57113,9.499,83,83,83,-0.000095,0.009716,0.019573,-0.018663,-0.004864,0.00145,0,0,0,0,0,0,0
1.006836388,0.209086869,-1.814379,-0.002669,0.004671,0,3,57134,9.52,83,83,83,-0.000096,0.009755,0.019653,-0.01868,-0.004404,0.001588,0,0,0,0,0,0,0
1.006836388,0.209086869,-1.819166,-0.001447,0.000853,0,3,57153,9.539,83,83,83,-0.000097,0.009799,0.019742,-0.018663,-0.003064,0.000456,0,0,0,0,0,0,0
1.006836388,0.209086869,-1.800017,-0.002669,0.005435,0,3,57173,9.559,83,83,83,-0.000097,0.00981,0.019763,-0.018652,-0.003586,0.001681,0,0,0,0,0,0,0
1.006836388,0.209086869,-1.807198,-0.003891,0.004976,0,3,57193,9.579,83,83,83,-0.000097,0.009834,0.019812,-0.018691,-0.00552,0.001528,0,0,0,0,0,0,0
1.006836388,0.209086869,-1.816773,-0.002822,0.002686,0,3,57213,9.599,83,83,83,-0.000098,0.009865,0.019874,-0.018727,-0.005066,0.000908,0,0,0,0,0,0,0
1.006836388,0.209086869,-1.802411,-0.006029,0.000395,0,3,57234,9.62,83,83,83,-0.000098,0.00989,0.019925,-0.018826,-0.008365,0.000238,0,0,0,0,0,0,0
1.006836388,0.209086869,-1.814379,-0.004044,0.006504,0,3,57253,9.639,83,83,83,-0.000099,0.009907,0.019959,-0.018894,-0.006378,0.002081,0,0,0,0,0,0,0
1.006836388,0.209086869,-1.81797,-0.001753,0.003144,0,3,57273,9.659,83,83,83,-0.000099,0.009939,0.020022,-0.018944,-0.004973,0.000996,0,0,0,0,0,0,0
1.006836388,0.209086869,-1.811985,-0.003738,0.003602,0,3,57293,9.679,83,83,83,-0.0001,0.009961,0.020068,-0.019007,-0.006243,0.001174,0,0,0,0,0,0,0
1.006836388,0.209086869,-1.801214,-0.005265,0.002075,0,3,57313,9.699,83,83,83,-0.0001,0.009987,0.02012,-0.019088,-0.007485,0.000719,0,0,0,0,0,0,0
1.006836388,0.209086869,-1.802411,-0.005265,0.003602,0,3,57334,9.72,83,83,83,-0.000101,0.010019,0.020184,-0.019158,-0.007143,0.001277,0,0,0,0,0,0,0
1.006836388,0.209086869,-1.797624,-0.004502,0.002533,0,3,57354,9.74,83,83,83,-0.000102,0.010048,0.020242,-0.019255,-0.007579,0.000875,0,0,0,0,0,0,0
1.006836388,0.209086869,-1.797624,-0.007251,0.001311,0,3,57374,9.76,83,83,83,-0.000102,0.010065,0.020276,-0.019372,-0.009453,0.000446,0,0,0,0,0,0,0
1.006836388,0.209086869,-1.79882,-0.004196,0.005435,0,3,57394,9.78,83,83,83,-0.000102,0.010062,0.020272,-0.019462,-0.007141,0.001582,0,0,0,0,0,0,0
1.006836388,0.209086869,-1.816773,-0.003433,0.001464,0,3,57414,9.8,83,83,83,-0.000103,0.010107,0.020362,-0.019516,-0.006043,0.000646,0,0,0,0,0,0,0
1.006836388,0.209086869,-1.835922,-0.002822,0.003297,0,3,57434,9.82,83,83,83,-0.000103,0.010118,0.020385,-0.019545,-0.005165,0.000517,0,0,0,0,0,0,0
1.006836388,0.209086869,-1.82156,-0.001447,0.006656,0,3,57454,9.84,83,83,83,-0.000103,0.010138,0.020425,-0.019566,-0.004018,0.002126,0,0,0,0,0,0,0
1.006836388,0.209086869,-1.819166,0.000843,0.001006,0,3,57474,9.86,83,83,83,-0.000105,0.010197,0.020542,-0.019552,-0.002277,0.000563,0,0,0,0,0,0,0
1.006836388,0.209086869,-1.796427,-0.005724,-0.00098,0,3,57494,9.88,83,83,83,-0.000105,0.010209,0.020567,-0.019595,-0.006838,-0.000251,0,0,0,0,0,0,0
1.006836388,0.209086869,-1.804805,-0.004807,0.001006,0,3,57514,9.9,83,83,83,-0.000105,0.010224,0.020596,-0.019647,-0.006633,0.000453,0,0,0,0,0,0,0
1.006836388,0.209086869,-1.829938,-0.005265,0.00238,0,3,57534,9.92,83,83,83,-0.000105,0.010237,0.020623,-0.019679,-0.006194,0.000782,0,0,0,0,0,0,0
1.006836388,0.209086869,-1.822757,-0.006182,0.005435,0,3,57554,9.94,83,83,83,-0.000106,0.010258,0.020665,-0.019757,-0.007779,0.001734,0,0,0,0,0,0,0
1.006836388,0.209086869,-1.810789,-0.000226,0.005893,0,3,57574,9.96,83,83,83,-0.000107,0.010294,0.020738,-0.019766,-0.003195,0.0019,0,0,0,0,0,0,0
1.006836388,0.209086869,-1.819166,-0.002058,0.006045,0,3,57594,9.98,83,83,83,-0.000107,0.010334,0.020819,-0.019753,-0.00341,0.001959,0,0,0,0,0,0,0
1.006836388,0.209086869,-1.780868,-0.000378,-0.002507,0,3,57614,10,83,83,83,-0.000108,0.010363,0.020877,-0.019736,-0.002885,-0.000723,0,0,0,0,0,0,0
1.006836388,0.209086869,-1.819166,-0.003738,0.002686,0,3,57634,10.02,83,83,83,-0.000108,0.010362,0.020875,-0.019742,-0.004646,0.001619,0,0,0,0,0,0,0
1.006836388,0.209086869,-1.810789,-0.002058,0.003297,0,3,57654,10.04,83,83,83,-0.000109,0.010395,0.020942,-0.019773,-0.00473,0.001104,0,0,0,0,0,0,0
1.006836388,0.209086869,-1.827544,-0.003738,0.003907,0,3,57674,10.06,83,83,83,-0.000109,0.010417,0.020986,-0.019828,-0.006133,0.001248,0,0,0,0,0,0,0
1.006836388,0.209086869,-1.820363,-0.006334,0.004518,0,3,57694,10.08,83,83,83,-0.00011,0.010442,0.021038,-0.019895,-0.007606,0.001447,0,0,0,0,0,0,0
1.006836388,0.209086869,-1.802411,-0.003891,-0.000369,0,3,57714,10.1,83,83,83,-0.000111,0.010492,0.021138,-0.019957,-0.006591,0.00015,0,0,0,0,0,0,0
1.006836388,0.209086869,-1.807198,-0.000989,0.001922,0,3,57734,10.12,83,83,83,-0.000111,0.010516,0.021185,-0.019998,-0.004335,-0.000017,0,0,0,0,0,0,0
1.006836388,0.209086869,-1.79523,-0.00496,0.002533,0,3,57754,10.14,83,83,83,-0.000111,0.010523,0.0212,-0.020019,-0.005827,0.000828,0,0,0,0,0,0,0
1.006836388,0.209086869,-1.807198,0.00176,-0.002812,0,3,57774,10.16,83,83,83,-0.000112,0.010543,0.02124,-0.020051,-0.003334,-0.000766,0,0,0,0,0,0,0
1.006836388,0.209086869,-1.816773,-0.002364,0.000089,0,3,57794,10.18,83,83,83,-0.000112,0.010537,0.021228,-0.020067,-0.004623,0.000064,0,0,0,0,0,0,0
1.006836388,0.209086869,-1.819166,-0.002516,-0.001285,0,3,57814,10.2,83,83,83,-0.000112,0.010547,0.021248,-0.02007,-0.004419,-0.000313,0,0,0,0,0,0,0
1.006836388,0.209086869,-1.834725,-0.005876,0.002991,0,3,57834,10.22,83,83,83,-0.000112,0.010547,0.021248,-0.0201,-0.006453,0.000938,0,0,0,0,0,0,0
1.006836388,0.209086869,-1.823954,-0.004807,0.005129,0,3,57854,10.24,83,83,83,-0.000113,0.01058,0.021314,-0.020138,-0.006138,0.001725,0,0,0,0,0,0,0
1.006836388,0.209086869,-1.796427,-0.001906,0.001311,0,3,57874,10.26,83,83,83,-0.000114,0.010636,0.021429,-0.020155,-0.004431,0.000684,0,0,0,0,0,0,0
1.006836388,0.209086869,-1.825151,-0.007403,0.001464,0,3,57894,10.28,83,83,83,-0.000114,0.010665,0.021487,-0.020221,-0.008246,0.000609,0,0,0,0,0,0,0
1.006836388,0.209086869,-1.800017,-0.000073,0.003602,0,3,57914,10.3,83,83,83,-0.000115,0.010684,0.021524,-0.020238,-0.003522,0.001182,0,0,0,0,0,0,0
1.006836388,0.209086869,-1.802411,-0.007862,0.000548,0,3,57934,10.32,83,83,83,-0.000116,0.010726,0.021608,-0.020309,-0.008649,0.000386,0,0,0,0,0,0,0
1.006836388,0.209086869,-1.807198,-0.003433,0.006962,0,3,57954,10.34,83,83,83,-0.000116,0.010733,0.021624,-0.020336,-0.005149,0.002128,0,0,0,0,0,0,0
1.006836388,0.209086869,-1.811985,-0.000378,0.000089,0,3,57974,10.36,83,83,83,-0.000117,0.01078,0.021718,-0.020353,-0.003839,0.000195,0,0,0,0,0,0,0
1.006836388,0.209086869,-1.807198,-0.002211,0.006962,0,3,57994,10.38,83,83,83,-0.000117,0.010785,0.021728,-0.020371,-0.004376,0.002126,0,0,0,0,0,0,0
1.006836388,0.209086869,-1.826347,-0.000989,0.00238,0,3,58014,10.4,83,83,83,-0.000118,0.010831,0.021821,-0.020343,-0.002748,0.00088,0,0,0,0,0,0,0
1.006836388,0.209086869,-1.819166,-0.000989,0.000242,0,3,58034,10.42,83,83,83,-0.000119,0.010862,0.021883,-0.020351,-0.003856,0.000236,0,0,0,0,0,0,0
1.006836388,0.209086869,-1.825151,-0.002822,0.006198,0,3,58054,10.44,83,83,83,-0.000119,0.010876,0.021912,-0.020359,-0.004404,0.001968,0,0,0,0,0,0,0
1.006836388,0.209086869,-1.801214,-0.001753,0.008031,0,3,58074,10.46,83,83,83,-0.00012,0.010939,0.022039,-0.020383,-0.004308,0.002741,0,0,0,0,0,0,0
1.006836388,0.209086869,-1.802411,-0.00496,0.001311,0,3,58094,10.48,83,83,83,-0.000121,0.010988,0.022138,-0.020418,-0.006335,0.000514,0,0,0,0,0,0,0
1.006836388,0.209086869,-1.816773,-0.000378,0.000853,0,3,58114,10.5,83,83,83,-0.000122,0.011021,0.022203,-0.020411,-0.00315,0.000475,0,0,0,0,0,0,0
1.006836417,0.209086858,-1.808395,0.001301,0.002686,0,3,58134,10.52,104,104,104,-0.00004,0.003891,0.015518,-0.020427,-0.002923,0.000923,0,0,0,0,0,0,0
1.006836417,0.209086858,-1.808395,0.00176,0.002228,0,3,58154,10.54,104,104,104,-0.00004,0.003921,0.015578,-0.020393,-0.001385,0.000827,0,0,0,0,0,0,0
1.006836417,0.209086858,-1.809592,-0.004044,0.003755,0,3,58174,10.56,104,104,104,-0.00004,0.003942,0.015619,-0.020383,-0.00456,0.001215,0,0,0,0,0,0,0
1.006836417,0.209086858,-1.806001,-0.001295,0.007267,0,3,58194,10.58,104,104,104,-0.000041,0.00397,0.015676,-0.020435,-0.004926,0.002305,0,0,0,0,0,0,0
1.006836417,0.209086858,-1.801214,-0.0016,-0.001438,0,3,58214,10.6,104,104,104,-0.000042,0.004018,0.015772,-0.02048,-0.005216,-0.000279,0,0,0,0,0,0,0
1.006836417,0.209086858,-1.808395,-0.000989,0.006504,0,3,58234,10.62,104,104,104,-0.000042,0.004014,0.015764,-0.020504,-0.006051,0.001136,0,0,0,0,0,0,0
1.006836417,0.209086858,-1.801214,-0.005876,0.003755,0,3,58254,10.64,104,104,104,-0.000042,0.004055,0.015847,-0.02054,-0.006707,0.001355,0,0,0,0,0,0,0
1.006836417,0.209086858,-1.822757,-0.000226,0.002991,0,3,58274,10.66,104,104,104,-0.000043,0.004095,0.015927,-0.020591,-0.004608,0.001093,0,0,0,0,0,0,0
1.006836417,0.209086858,-1.802411,-0.005265,0.001006,0,3,58294,10.68,104,104,104,-0.000043,0.004122,0.015982,-0.02066,-0.007449,0.000414,0,0,0,0,0,0,0
1.006836417,0.209086858,-1.82156,-0.004349,0.001769,0,3,58314,10.7,104,104,104,-0.000043,0.004137,0.016013,-0.0207,-0.0062,0.000623,0,0,0,0,0,0,0
1.006836417,0.209086858,-1.823954,-0.004349,0.001158,0,3,58334,10.72,104,104,104,-0.000044,0.004171,0.016082,-0.020711,-0.005461,0.000566,0,0,0,0,0,0,0
1.006836417,0.209086858,-1.815576,-0.004349,0.003144,0,3,58354,10.74,104,104,104,-0.000044,0.00419,0.016119,-0.020765,-0.006549,0.001045,0,0,0,0,0,0,0
1.006836417,0.209086858,-1.807198,-0.004349,0.001922,0,3,58374,10.76,104,104,104,-0.000045,0.004241,0.016222,-0.020765,-0.005119,0.000892,0,0,0,0,0,0,0
1.006836417,0.209086858,-1.820363,-0.00328,0.005129,0,3,58394,10.78,104,104,104,-0.000046,0.004269,0.016278,-0.020764,-0.004479,0.001686,0,0,0,0,0,0,0
1.006836417,0.209086858,-1.804805,-0.006487,0.005282,0,3,58414,10.8,104,104,104,-0.000046,0.004311,0.016362,-0.020836,-0.007946,0.001765,0,0,0,0,0,0,0
1.006836417,0.209086858,-1.79882,-0.0016,0.005282,0,3,58434,10.82,104,104,104,-0.000047,0.004337,0.016414,-0.020885,-0.005104,0.001537,0,0,0,0,0,0,0
1.006836417,0.209086858,-1.822757,-0.002822,0.001158,0,3,58454,10.84,104,104,104,-0.000047,0.004379,0.016499,-0.020903,-0.004977,0.000538,0,0,0,0,0,0,0
1.006836417,0.209086858,-1.797624,-0.000226,0.002075,0,3,58474,10.86,104,104,104,-0.000048,0.0044,0.016541,-0.020902,-0.003273,0.000748,0,0,0,0,0,0,0
1.006836417,0.209086858,-1.788049,0.000385,0.003602,0,3,58494,10.88,104,104,104,-0.000048,0.004434,0.01661,-0.020912,-0.003218,0.001294,0,0,0,0,0,0,0
1.006836417,0.209086858,-1.808395,-0.00328,0.00238,0,3,58514,10.9,104,104,104,-0.000049,0.004474,0.016691,-0.020922,-0.004931,0.000918,0,0,0,0,0,0,0
1.006836417,0.209086858,-1.816773,-0.007251,0.003449,0,3,58534,10.92,104,104,104,-0.000049,0.004499,0.016741,-0.020956,-0.006462,0.001887,0,0,0,0,0,0,0
1.006836417,0.209086858,-1.802411,-0.003433,-0.003423,0,3,58554,10.94,104,104,104,-0.00005,0.004539,0.016821,-0.021033,-0.007088,-0.000898,0,0,0,0,0,0,0
1.006836417,0.209086858,-1.794033,-0.003586,0.001769,0,3,58574,10.96,104,104,104,-0.00005,0.004539,0.016823,-0.021049,-0.005275,0.000637,0,0,0,0,0,0,0
1.006836417,0.209086858,-1.850284,-0.006793,0.003907,0,3,58594,10.98,104,104,104,-0.000051,0.004568,0.016881,-0.021109,-0.007834,0.001352,0,0,0,0,0,0,0
1.006836417,0.209086858,-1.813182,-0.00328,-0.001438,0,3,58614,11,104,104,104,-0.000051,0.004606,0.016957,-0.021161,-0.006285,-0.000261,0,0,0,0,0,0,0
1.006836417,0.209086858,-1.815576,-0.003127,-0.000674,0,3,58634,11.02,104,104,104,-0.000051,0.004622,0.016988,-0.021165,-0.003648,0.001617,0,0,0,0,0,0,0
1.006836417,0.209086858,-1.829938,-0.001142,0.001006,0,3,58654,11.04,104,104,104,-0.000052,0.004642,0.017029,-0.021176,-0.004093,0.000306,0,0,0,0,0,0,0
1.006836417,0.209086858,-1.810789,0.000691,-0.000369,0,3,58674,11.06,104,104,104,-0.000052,0.004644,0.017033,-0.021155,-0.002424,-0.000124,0,0,0,0,0,0,0
1.006836417,0.209086858,-1.807198,-0.002211,0.003602,0,3,58694,11.08,104,104,104,-0.000052,0.004659,0.017065,-0.021177,-0.004759,0.001234,0,0,0,0,0,0,0
1.006836417,0.209086858,-1.819166,0.000385,0.006198,0,3,58714,11.1,104,104,104,-0.000053,0.004684,0.017113,-0.021212,-0.003854,0.001949,0,0,0,0,0,0,0
1.006836417,0.209086858,-1.823954,-0.002516,0.005587,0,3,58734,11.12,104,104,104,-0.000053,0.004724,0.017195,-0.021232,-0.004597,0.000527,0,0,0,0,0,0,0
1.006836417,0.209086858,-1.801214,-0.003738,0.004213,0,3,58754,11.14,104,104,104,-0.000054,0.004753,0.017253,-0.021258,-0.005561,0.001459,0,0,0,0,0,0,0
1.006836417,0.209086858,-1.82156,-0.003738,0.003755,0,3,58774,11.16,104,104,104,-0.000054,0.004789,0.017326,-0.021276,-0.005351,0.001282,0,0,0,0,0,0,0
1.006836417,0.209086858,-1.829938,-0.002211,0.003297,0,3,58794,11.18,104,104,104,-0.000055,0.004813,0.017374,-0.021278,-0.004232,0.00106,0,0,0,0,0,0,0
1.006836417,0.209086858,-1.8443,-0.002975,0.001617,0,3,58814,11.2,104,104,104,-0.000055,0.004835,0.01742,-0.021302,-0.005256,0.000565,0,0,0,0,0,0,0
1.006836417,0.209086858,-1.833528,-0.001142,0.001158,0,3,58834,11.22,104,104,104,-0.000055,0.004857,0.017462,-0.021346,-0.004917,0.001118,0,0,0,0,0,0,0
1.006836417,0.209086858,-1.832331,-0.004044,0.002075,0,3,58854,11.24,104,104,104,-0.000056,0.004877,0.017503,-0.021364,-0.005569,0.000679,0,0,0,0,0,0,0
1.006836417,0.209086858,-1.816773,-0.002669,0.003144,0,3,58874,11.26,104,104,104,-0.000056,0.004904,0.017558,-0.02138,-0.004847,0.001105,0,0,0,0,0,0,0
1.006836417,0.209086858,-1.82156,-0.00496,0.000548,0,3,58894,11.28,104,104,104,-0.000056,0.004913,0.017576,-0.021439,-0.007151,0.000126,0,0,0,0,0,0,0
1.006836417,0.209086858,-1.796427,-0.00328,0.001769,0,3,58914,11.3,104,104,104,-0.000057,0.004915,0.01758,-0.021498,-0.00638,0.000544,0,0,0,0,0,0,0
1.006836417,0.209086858,-1.811985,-0.004349,-0.000674,0,3,58934,11.32,104,104,104,-0.000057,0.004926,0.017601,-0.021552,-0.006023,0.000292,0,0,0,0,0,0,0
1.006836417,0.209086858,-1.807198,-0.002058,0.001922,0,3,58954,11.34,104,104,104,-0.000057,0.004927,0.017604,-0.02159,-0.00525,0.000568,0,0,0,0,0,0,0
1.006836417,0.209086858,-1.816773,-0.001906,0.003755,0,3,58974,11.36,104,104,104,-0.000057,0.004958,0.017665,-0.021612,-0.004689,0.001327,0,0,0,0,0,0,0
1.006836417,0.209086858,-1.825151,-0.002364,0.001617,0,3,58994,11.38,104,104,104,-0.000058,0.004989,0.017729,-0.02162,-0.004597,0.000612,0,0,0,0,0,0,0
1.006836417,0.209086858,-1.829938,0.00008,0.002838,0,3,59014,11.4,104,104,104,-0.000058,0.005008,0.017767,-0.021639,-0.003753,0.000956,0,0,0,0,0,0,0
1.006836417,0.209086858,-1.828741,-0.004349,0.004213,0,3,59034,11.42,104,104,104,-0.000059,0.00503,0.017812,-0.021659,-0.005546,0.000158,0,0,0,0,0,0,0
1.006836417,0.209086858,-1.81797,-0.004349,0.001922,0,3,59054,11.44,104,104,104,-0.000059,0.005049,0.017849,-0.021709,-0.006629,0.00072,0,0,0,0,0,0,0
1.006836417,0.209086858,-1.784459,-0.001753,0.007725,0,3,59074,11.46,104,104,104,-0.000059,0.005062,0.017875,-0.02172,-0.004152,0.002369,0,0,0,0,0,0,0
1.006836417,0.209086858,-1.846693,-0.003586,-0.000063,0,3,59094,11.48,104,104,104,-0.00006,0.005106,0.017965,-0.021727,-0.005207,0.0001,0,0,0,0,0,0,0
1.006836417,0.209086858,-1.834725,-0.005571,0.004213,0,3,59114,11.5,104,104,104,-0.00006,0.005117,0.017986,-0.021788,-0.007416,0.001353,0,0,0,0,0,0,0
1.006836417,0.209086858,-1.800017,-0.002975,-0.00098,0,3,59134,11.52,104,104,104,-0.000061,0.005151,0.018055,-0.021847,-0.006329,0.000817,0,0,0,0,0,0,0
1.006836417,0.209086858,-1.815576,-0.00328,0.003449,0,3,59153,11.539,104,104,104,-0.000061,0.005159,0.018071,-0.021882,-0.005708,0.001024,0,0,0,0,0,0,0
1.006836417,0.209086858,-1.806001,-0.002669,0.001158,0,3,59173,11.559,104,104,104,-0.000061,0.005185,0.018124,-0.021883,-0.004607,0.00046,0,0,0,0,0,0,0
1.006836417,0.209086858,-1.803608,-0.00496,0.003602,0,3,59193,11.579,104,104,104,-0.000061,0.005192,0.018139,-0.021892,-0.005729,0.001103,0,0,0,0,0,0,0
1.006836417,0.209086858,-1.819166,-0.000073,0.0007,0,3,59213,11.599,104,104,104,-0.000062,0.00522,0.018195,-0.021897,-0.00357,0.00033,0,0,0,0,0,0,0
1.006836417,0.209086858,-1.825151,0.002065,0.002228,0,3,59234,11.62,104,104,104,-0.000062,0.005229,0.018212,-0.021858,-0.001327,0.000715,0,0,0,0,0,0,0
1.006836417,0.209086858,-1.79164,-0.004349,0.001617,0,3,59253,11.639,104,104,104,-0.000063,0.005251,0.018257,-0.021855,-0.005229,0.000598,0,0,0,0,0,0,0
1.006836417,0.209086858,-1.807198,-0.005265,-0.000521,0,3,59273,11.659,104,104,104,-0.000063,0.005266,0.018287,-0.0219,-0.007019,-0.000096,0,0,0,0,0,0,0
1.006836417,0.209086858,-1.807198,-0.001753,0.003144,0,3,59293,11.679,104,104,104,-0.000063,0.005272,0.018299,-0.021945,-0.005335,0.001016,0,0,0,0,0,0,0
1.006836417,0.209086858,-1.786852,-0.000226,0.002075,0,3,59313,11.699,104,104,104,-0.000064,0.005311,0.018377,-0.02198,-0.004435,0.000847,0,0,0,0,0,0,0
1.006836417,0.209086858,-1.833528,-0.00496,0.001464,0,3,59334,11.72,104,104,104,-0.000064,0.00533,0.018415,-0.022008,-0.006365,0.00051,0,0,0,0,0,0,0
1.006836417,0.209086858,-1.79523,0.000996,0.004518,0,3,59353,11.739,104,104,104,-0.000064,0.005346,0.018448,-0.022025,-0.003264,0.001454,0,0,0,0,0,0,0
1.006836417,0.209086858,-1.801214,-0.002516,0.00406,0,3,59373,11.759,104,104,104,-0.000065,0.005375,0.018506,-0.022031,-0.004565,0.001312,0,0,0,0,0,0,0
1.006836417,0.209086858,-1.804805,-0.004807,0.001006,0,3,59393,11.779,104,104,104,-0.000065,0.005399,0.018556,-0.022099,-0.007447,0.000374,0,0,0,0,0,0,0
1.006836417,0.209086858,-1.803608,-0.003433,0.002991,0,3,59413,11.799,104,104,104,-0.000065,0.005409,0.018576,-0.022127,-0.005644,0.000949,0,0,0,0,0,0,0
1.006836417,0.209086858,-1.796427,-0.004349,0.000395,0,3,59434,11.82,104,104,104,-0.000066,0.005441,0.01864,-0.022145,-0.005881,0.000286,0,0,0,0,0,0,0
1.006836417,0.209086858,-1.789246,-0.002211,0.003144,0,3,59453,11.839,104,104,104,-0.000066,0.005466,0.01869,-0.02216,-0.004749,0.001125,0,0,0,0,0,0,0
1.006836417,0.209086858,-1.804805,-0.000684,0.001922,0,3,59473,11.859,104,104,104,-0.000067,0.005487,0.018732,-0.022151,-0.003447,0.00064,0,0,0,0,0,0,0
1.006836417,0.209086858,-1.828741,0.000843,0.005893,0,3,59493,11.879,104,104,104,-0.000067,0.005513,0.018785,-0.022141,-0.00258,0.001936,0,0,0,0,0,0,0
1.006836417,0.209086858,-1.831135,-0.001753,0.004824,0,3,59513,11.899,104,104,104,-0.000068,0.005548,0.018854,-0.022152,-0.004349,0.001539,0,0,0,0,0,0,0
1.006836417,0.209086858,-1.838316,-0.004349,0.003449,0,3,59534,11.92,104,104,104,-0.000068,0.005565,0.018889,-0.022227,-0.007325,0.001028,0,0,0,0,0,0,0
1.006836417,0.209086858,-1.828741,-0.002364,0.006809,0,3,59553,11.939,104,104,104,-0.000069,0.005593,0.018945,-0.022282,-0.005792,0.002184,0,0,0,0,0,0,0
1.006836417,0.209086858,-1.815576,-0.00328,0.003297,0,3,59574,11.96,104,104,104,-0.00007,0.005629,0.019018,-0.022316,-0.005737,0.001066,0,0,0,0,0,0,0
1.006836417,0.209086858,-1.797624,-0.004044,-0.000216,0,3,59594,11.98,104,104,104,-0.00007,0.005648,0.019056,-0.022334,-0.005806,-0.000018,0,0,0,0,0,0,0
1.006836417,0.209086858,-1.800017,-0.002669,0.003144,0,3,59614,12,104,104,104,-0.00007,0.00565,0.01906,-0.022382,-0.005872,0.000973,0,0,0,0,0,0,0
1.006836417,0.209086858,-1.815576,-0.004349,0.001311,0,3,59634,12.02,104,104,104,-0.00007,0.005651,0.019062,-0.022373,-0.003279,0.000955,0,0,0,0,0,0,0
1.006836417,0.209086858,-1.816773,-0.000226,0.004824,0,3,59654,12.04,104,104,104,-0.00007,0.005669,0.0191,-0.022384,-0.00371,0.001515,0,0,0,0,0,0,0
1.006836417,0.209086858,-1.82156,-0.004349,0.00406,0,3,59673,12.059,104,104,104,-0.000071,0.005706,0.019173,-0.022435,-0.006678,0.001371,0,0,0,0,0,0,0
1.006836417,0.209086858,-1.819166,-0.005571,-0.000369,0,3,59694,12.08,104,104,104,-0.000071,0.005714,0.019189,-0.022477,-0.007184,-0.000187,0,0,0,0,0,0,0
1.006836417,0.209086858,-1.808395,-0.006029,0.003144,0,3,59713,12.099,104,104,104,-0.000071,0.005717,0.019196,-0.022558,-0.008308,0.000998,0,0,0,0,0,0,0
1.006836417,0.209086858,-1.813182,-0.004044,0.003907,0,3,59734,12.12,104,104,104,-0.000072,0.005746,0.019254,-0.022583,-0.00441,0.000999,0,0,0,0,0,0,0
1.006836417,0.209086858,-1.819166,-0.004502,0.005129,0,3,59754,12.14,104,104,104,-0.000072,0.005775,0.019313,-0.022624,-0.006471,0.001688,0,0,0,0,0,0,0
1.006836417,0.209086858,-1.811985,-0.00328,-0.001438,0,3,59774,12.16,104,104,104,-0.000073,0.005812,0.019387,-0.022657,-0.005988,-0.000306,0,0,0,0,0,0,0
1.006836417,0.209086858,-1.811985,-0.003586,0.005282,0,3,59794,12.18,104,104,104,-0.000073,0.005817,0.019397,-0.022679,-0.005542,0.001671,0,0,0,0,0,0,0
1.006836417,0.209086858,-1.811985,-0.000073,0.007267,0,3,59814,12.2,104,104,104,-0.000074,0.005846,0.019455,-0.022706,-0.004008,0.002262,0,0,0,0,0,0,0
1.006836417,0.209086858,-1.826347,-0.001142,0.002991,0,3,59834,12.22,104,104,104,-0.000074,0.005875,0.019513,-0.022739,-0.007747,-0.000703,0,0,0,0,0,0,0
1.006836417,0.209086858,-1.813182,-0.002822,0.003144,0,3,59854,12.24,104,104,104,-0.000075,0.005889,0.019542,-0.022758,-0.00494,0.001058,0,0,0,0,0,0,0
1.006836417,0.209086858,-1.826347,-0.001447,0.002228,0,3,59874,12.26,104,104,104,-0.000075,0.005919,0.019603,-0.022761,-0.004186,0.000813,0,0,0,0,0,0,0
1.006836417,0.209086858,-1.810789,-0.005113,0.002075,0,3,59894,12.28,104,104,104,-0.000076,0.00594,0.019645,-0.022802,-0.00691,0.000714,0,0,0,0,0,0,0
1.006836417,0.209086858,-1.810789,-0.000989,0.002991,0,3,59914,12.3,104,104,104,-0.000076,0.005963,0.019691,-0.022802,-0.003895,0.001021,0,0,0,0,0,0,0
1.006836417,0.209086858,-1.820363,-0.002975,0.006351,0,3,59934,12.32,104,104,104,-0.000077,0.005992,0.01975,-0.022832,-0.005459,0.002058,0,0,0,0,0,0,0
1.006836417,0.209086858,-1.827544,-0.000073,0.001617,0,3,59954,12.34,104,104,104,-0.000078,0.006046,0.019858,-0.022843,-0.003852,0.000719,0,0,0,0,0,0,0
1.006836417,0.209086858,-1.807198,-0.001906,0.001922,0,3,59974,12.36,104,104,104,-0.000078,0.006075,0.019917,-0.022866,-0.004975,0.000752,0,0,0,0,0,0,0
1.006836417,0.209086858,-1.809592,-0.003127,0.0007,0,3,59994,12.38,104,104,104,-0.000079,0.006093,0.019953,-0.022896,-0.005787,0.000281,0,0,0,0,0,0,0
1.006836417,0.209086858,-1.794033,-0.00328,0.005129,0,3,60014,12.4,104,104,104,-0.000079,0.006099,0.019965,-0.022922,-0.005545,0.001574,0,0,0,0,0,0,0
1.006836417,0.209086858,-1.823954,-0.007556,0.001006,0,3,60034,12.42,104,104,104,-0.000079,0.006118,0.020004,-0.022933,-0.004193,-0.000437,0,0,0,0,0,0,0
1.006836417,0.209086858,-1.820363,-0.002058,0.003144,0,3,60054,12.44,104,104,104,-0.000079,0.006116,0.019999,-0.022985,-0.005812,0.000983,0,0,0,0,0,0,0
1.006836417,0.209086858,-1.81797,-0.00832,0.003602,0,3,60074,12.46,104,104,104,-0.000079,0.006128,0.020024,-0.023051,-0.008973,0.001089,0,0,0,0,0,0,0
1.006836417,0.209086858,-1.810789,0.000843,0.002533,0,3,60094,12.48,104,104,104,-0.00008,0.00615,0.020068,-0.023104,-0.00459,0.000838,0,0,0,0,0,0,0
1.006836417,0.209086858,-1.815576,-0.00496,0.002533,0,3,60114,12.5,104,104,104,-0.00008,0.006181,0.02013,-0.023154,-0.007121,0.000936,0,0,0,0,0,0,0
1.006836417,0.209086858,-1.822757,-0.000684,0.002991,0,3,60134,12.52,104,104,104,-0.000081,0.006193,0.020155,-0.023166,-0.005417,0.000962,0,0,0,0,0,0,0
1.006836417,0.209086858,-1.809592,-0.001753,0.000395,0,3,60154,12.54,104,104,104,-0.000081,0.006231,0.020231,-0.023157,-0.004182,0.00023,0,0,0,0,0,0,0
1.006836417,0.209086858,-1.813182,-0.005876,0.000395,0,3,60174,12.56,104,104,104,-0.000082,0.006244,0.020258,-0.02319,-0.007147,0.000205,0,0,0,0,0,0,0
1.006836417,0.209086858,-1.79164,-0.006793,0.005282,0,3,60194,12.58,104,104,104,-0.000082,0.006252,0.020273,-0.023239,-0.007794,0.001637,0,0,0,0,0,0,0
1.006836417,0.209086858,-1.807198,-0.004807,0.001464,0,3,60214,12.6,104,104,104,-0.000082,0.00627,0.020311,-0.023318,-0.007908,0.00043,0,0,0,0,0,0,0
1.006836417,0.209086858,-1.815576,-0.00664,0.007573,0,3,60234,12.62,104,104,104,-0.000082,0.006276,0.020322,-0.023338,-0.006374,0.000078,0,0,0,0,0,0,0
1.006836417,0.209086858,-1.813182,-0.004196,0.003449,0,3,60254,12.64,104,104,104,-0.000084,0.006339,0.020448,-0.023456,-0.007619,0.001313,0,0,0,0,0,0,0
1.006836417,0.209086858,-1.804805,-0.000226,0.001769,0,3,60274,12.66,104,104,104,-0.000084,0.006375,0.020522,-0.023438,-0.0032,0.000703,0,0,0,0,0,0,0
1.006836417,0.209086858,-1.808395,-0.002975,0.001311,0,3,60294,12.68,104,104,104,-0.000085,0.006404,0.02058,-0.023447,-0.005191,0.000561,0,0,0,0,0,0,0
1.006836417,0.209086858,-1.808395,0.000538,0.00574,0,3,60314,12.7,104,104,104,-0.000085,0.006426,0.020625,-0.023416,-0.002322,0.001865,0,0,0,0,0,0,0
1.006836417,0.209086858,-1.81797,-0.002058,0.005587,0,3,60334,12.72,104,104,104,-0.000086,0.00645,0.020673,-0.023435,-0.006188,0.001284,0,0,0,0,0,0,0
1.006836417,0.209086858,-1.79523,0.000691,0.003755,0,3,60354,12.74,104,104,104,-0.000087,0.006514,0.020801,-0.023441,-0.003083,0.001338,0,0,0,0,0,0,0
1.006836417,0.209086858,-1.792836,-0.003891,0.00238,0,3,60374,12.76,104,104,104,-0.000088,0.006553,0.020881,-0.023463,-0.005937,0.000905,0,0,0,0,0,0,0
1.006836417,0.209086858,-1.788049,-0.004349,0.004976,0,3,60394,12.78,104,104,104,-0.000088,0.006576,0.020926,-0.023466,-0.005492,0.001596,0,0,0,0,0,0,0
1.006836417,0.209086858,-1.814379,-0.00328,0.003144,0,3,60414,12.8,104,104,104,-0.000089,0.006597,0.020969,-0.023534,-0.006872,0.000962,0,0,0,0,0,0,0
1.006836417,0.209086852,-1.797624,-0.002669,0.004213,0,3,60434,12.82,127,127,127,-0.012276,0.002358,0.017257,-0.023569,-0.005666,0.001306,-0.000021,0,0,0,0,0,0
1.006836417,0.209086852,-1.808395,-0.002669,0.002228,0,3,60454,12.84,127,127,127,-0.012277,0.002392,0.017327,-0.023592,-0.005427,0.000826,-0.000003,0,0,0,0,0,0
1.006836417,0.209086852,-1.794033,-0.006182,0.001617,0,3,60474,12.86,127,127,127,-0.012278,0.002432,0.017407,-0.023597,-0.006544,0.000729,0,0,0,0,0,0,0
1.006836417,0.209086852,-1.823954,-0.000531,0.005587,0,3,60494,12.88,127,127,127,-0.012278,0.002445,0.017432,-0.023602,-0.00384,0.001719,0,0,0,0,0,0,0
1.006836417,0.209086852,-1.82156,-0.003586,0.004213,0,3,60514,12.9,127,127,127,-0.012278,0.002482,0.017507,-0.023586,-0.004683,0.001399,0,0,0,0,0,0,0
1.006836417,0.209086852,-1.807198,-0.002516,0.001311,0,3,60534,12.92,127,127,127,-0.012279,0.002521,0.017585,-0.023601,-0.005163,0.000574,0,0,0,0,0,0,0
1.006836417,0.209086852,-1.810789,-0.002516,0.003907,0,3,60554,12.94,127,127,127,-0.012279,0.002534,0.017612,-0.023618,-0.005116,0.001233,0,0,0,0,0,0,0
1.006836417,0.209086852,-1.804805,-0.005113,0.00238,0,3,60574,12.96,127,127,127,-0.01228,0.00256,0.017663,-0.023648,-0.006734,0.000802,0,0,0,0,0,0,0
1.006836417,0.209086852,-1.792836,-0.002058,0.00406,0,3,60594,12.98,127,127,127,-0.01228,0.002581,0.017706,-0.023724,-0.006554,0.001323,0,0,0,0,0,0,0
1.006836417,0.209086852,-1.810789,-0.000073,0.002228,0,3,60614,13,127,127,127,-0.012281,0.00261,0.017765,-0.023737,-0.003995,0.00078,0,0,0,0,0,0,0
1.006836417,0.209086852,-1.807198,-0.004196,0.002991,0,3,60634,13.02,127,127,127,-0.012281,0.002634,0.017812,-0.023776,-0.005329,0.001438,0,0,0,0,0,0,0
1.006836417,0.209086852,-1.79882,-0.002975,0.000548,0,3,60654,13.04,127,127,127,-0.012282,0.002665,0.017877,-0.023811,-0.006016,0.000282,0,0,0,0,0,0,0
1.006836417,0.209086852,-1.839512,-0.002364,0.002991,0,3,60673,13.059,127,127,127,-0.012282,0.002692,0.017931,-0.023805,-0.004497,0.001098,0,0,0,0,0,0,0
1.006836417,0.209086852,-1.809592,-0.005571,0.000089,0,3,60693,13.079,127,127,127,-0.012283,0.002722,0.017991,-0.023814,-0.006467,0.00016,0,0,0,0,0,0,0
1.006836417,0.209086852,-1.796427,-0.005876,0.000548,0,3,60713,13.099,127,127,127,-0.012283,0.002724,0.017994,-0.023841,-0.007054,0.000163,0,0,0,0,0,0,0
1.006836417,0.209086852,-1.827544,-0.002975,0.001158,0,3,60734,13.12,127,127,127,-0.012283,0.002732,0.01801,-0.023881,-0.006125,0.000404,0,0,0,0,0,0,0
1.006836417,0.209086852,-1.809592,-0.005265,0.002991,0,3,60753,13.139,127,127,127,-0.012283,0.002748,0.018043,-0.023922,-0.007096,0.000997,0,0,0,0,0,0,0
1.006836417,0.209086852,-1.811985,-0.004807,0.00406,0,3,60773,13.159,127,127,127,-0.012284,0.002778,0.018104,-0.023979,-0.007303,0.001376,0,0,0,0,0,0,0
1.006836417,0.209086852,-1.832331,-0.004349,0.001769,0,3,60793,13.179,127,127,127,-0.012284,0.002816,0.01818,-0.024068,-0.008104,0.000704,0,0,0,0,0,0,0
1.006836417,0.209086852,-1.810789,-0.002669,0.002838,0,3,60813,13.199,127,127,127,-0.012285,0.002834,0.018216,-0.024099,-0.005703,0.000937,0,0,0,0,0,0,0
1.006836417,0.209086852,-1.797624,-0.000684,-0.000674,0,3,60834,13.22,127,127,127,-0.012285,0.002853,0.018255,-0.024141,-0.005253,-0.000134,0,0,0,0,0,0,0
1.006836417,0.209086852,-1.813182,-0.003891,0.006351,0,3,60853,13.239,127,127,127,-0.012285,0.00286,0.018269,-0.024138,-0.005154,0.00199,0,0,0,0,0,0,0
1.006836417,0.209086852,-1.819166,-0.0016,0.003144,0,3,60873,13.259,127,127,127,-0.012286,0.002895,0.018339,-0.024175,-0.005406,0.001034,0,0,0,0,0,0,0
1.006836417,0.209086852,-1.811985,-0.000837,0.005129,0,3,60893,13.279,127,127,127,-0.012286,0.002916,0.018382,-0.024188,-0.004281,0.001618,0,0,0,0,0,0,0
1.006836417,0.209086852,-1.82156,-0.0016,0.00238,0,3,60913,13.299,127,127,127,-0.012287,0.002963,0.018477,-0.024188,-0.004424,0.000943,0,0,0,0,0,0,0
1.006836417,0.209086852,-1.827544,-0.002058,0.001158,0,3,60934,13.32,127,127,127,-0.012287,0.002979,0.018509,-0.024238,-0.006026,0.000389,0,0,0,0,0,0,0
1.006836417,0.209086852,-1.835922,-0.004502,0.002838,0,3,60953,13.339,127,127,127,-0.012288,0.002995,0.01854,-0.024297,-0.007336,0.000947,0,0,0,0,0,0,0
1.006836417,0.209086852,-1.82156,-0.001753,0.003144,0,3,60973,13.359,127,127,127,-0.012288,0.003023,0.018597,-0.024319,-0.005051,0.001085,0,0,0,0,0,0,0
1.006836417,0.209086852,-1.802411,-0.002516,0.005587,0,3,60993,13.379,127,127,127,-0.012289,0.003054,0.01866,-0.024337,-0.005206,0.001838,0,0,0,0,0,0,0
1.006836417,0.209086852,-1.800017,0.000691,0.00406,0,3,61013,13.399,127,127,127,-0.01229,0.003102,0.018756,-0.024306,-0.002477,0.00143,0,0,0,0,0,0,0
1.006836417,0.209086852,-1.831135,-0.003891,0.003297,0,3,61034,13.42,127,127,127,-0.01229,0.003118,0.018788,-0.024335,-0.006191,0.00098,0,0,0,0,0,0,0
1.006836417,0.209086852,-1.786852,-0.003433,0.0007,0,3,61053,13.439,127,127,127,-0.01229,0.003136,0.018824,-0.024355,-0.005871,0.000259,0,0,0,0,0,0,0
1.006836417,0.209086852,-1.807198,0.001607,0.001158,0,3,61073,13.459,127,127,127,-0.012291,0.00315,0.018852,-0.024357,-0.003107,0.000446,0,0,0,0,0,0,0
1.006836417,0.209086852,-1.800017,-0.001906,0.001311,0,3,61093,13.479,127,127,127,-0.012291,0.003161,0.018874,-0.024343,-0.004219,0.000442,0,0,0,0,0,0,0
1.006836417,0.209086852,-1.832331,-0.003891,0.002228,0,3,61113,13.499,127,127,127,-0.012291,0.003179,0.018911,-0.024392,-0.006807,0.000782,0,0,0,0,0,0,0
1.006836417,0.209086852,-1.806001,-0.001753,0.00238,0,3,61134,13.52,127,127,127,-0.012291,0.003197,0.018947,-0.02441,-0.004999,0.00079,0,0,0,0,0,0,0
1.006836417,0.209086852,-1.823954,-0.004196,0.004518,0,3,61154,13.54,127,127,127,-0.012292,0.003224,0.019003,-0.024446,-0.006498,0.001511,0,0,0,0,0,0,0
1.006836417,0.209086852,-1.816773,-0.001753,0.001922,0,3,61174,13.56,127,127,127,-0.012292,0.00325,0.019055,-0.024449,-0.004603,0.000639,0,0,0,0,0,0,0
1.006836417,0.209086852,-1.833528,0.001607,0.003602,0,3,61194,13.58,127,127,127,-0.012293,0.003291,0.019138,-0.024432,-0.002512,0.001367,0,0,0,0,0,0,0
1.006836417,0.209086852,-1.803608,-0.002975,0.00574,0,3,61214,13.6,127,127,127,-0.012294,0.003322,0.0192,-0.024441,-0.005163,0.001848,0,0,0,0,0,0,0
1.006836417,0.209086852,-1.807198,-0.002516,-0.000521,0,3,61234,13.62,127,127,127,-0.012294,0.003355,0.019267,-0.024456,-0.005393,-0.000076,0,0,0,0,0,0,0
1.006836417,0.209086852,-1.79882,-0.005571,0.004213,0,3,61254,13.64,127,127,127,-0.012295,0.003375,0.019306,-0.024485,-0.006929,0.001442,0,0,0,0,0,0,0
1.006836417,0.209086852,-1.84789,-0.00496,0.003755,0,3,61274,13.66,127,127,127,-0.012295,0.003395,0.019348,-0.024507,-0.006497,0.001156,0,0,0,0,0,0,0
1.006836417,0.209086852,-1.79523,-0.000837,0.00406,0,3,61294,13.68,127,127,127,-0.012296,0.003426,0.019409,-0.024524,-0.004532,0.00136,0,0,0,0,0,0,0
1.006836417,0.209086852,-1.79164,-0.004807,-0.002965,0,3,61314,13.7,127,127,127,-0.012296,0.003457,0.019471,-0.024564,-0.007214,-0.000782,0,0,0,0,0,0,0
1.006836417,0.209086852,-1.811985,0.000843,0.005435,0,3,61334,13.72,127,127,127,-0.012296,0.003439,0.019435,-0.02461,-0.006384,0.001168,0,0,0,0,0,0,0
1.006836417,0.209086852,-1.810789,-0.004502,-0.000674,0,3,61353,13.739,127,127,127,-0.012297,0.003476,0.019511,-0.024615,-0.00606,-0.000015,0,0,0,0,0,0,0
1.006836417,0.209086852,-1.79882,0.003439,0.00238,0,3,61373,13.759,127,127,127,-0.012297,0.003478,0.019513,-0.024621,-0.002353,0.000741,0,0,0,0,0,0,0
1.006836417,0.209086852,-1.809592,-0.007709,0.002686,0,3,61393,13.779,127,127,127,-0.012297,0.003505,0.019568,-0.024663,-0.00838,0.000959,0,0,0,0,0,0,0
1.006836417,0.209086852,-1.82156,0.000232,0.002228,0,3,61413,13.799,127,127,127,-0.012298,0.003529,0.019617,-0.024709,-0.004911,0.000778,0,0,0,0,0,0,0
1.006836417,0.209086852,-1.811985,-0.004502,0.000242,0,3,61434,13.82,127,127,127,-0.012298,0.003552,0.019662,-0.024692,-0.005394,0.000179,0,0,0,0,0,0,0
1.006836417,0.209086852,-1.814379,-0.001447,0.001922,0,3,61453,13.839,127,127,127,-0.012299,0.003574,0.019707,-0.024685,-0.004253,0.00075,0,0,0,0,0,0,0
1.006836417,0.209086852,-1.846693,-0.002516,0.003449,0,3,61473,13.859,127,127,127,-0.0123,0.003615,0.01979,-0.024716,-0.005728,0.001306,0,0,0,0,0,0,0
1.006836417,0.209086852,-1.794033,-0.000989,0.003297,0,3,61493,13.879,127,127,127,-0.0123,0.003635,0.019829,-0.02474,-0.004807,0.001025,0,0,0,0,0,0,0
1.006836417,0.209086852,-1.792836,-0.000073,0.004671,0,3,61513,13.899,127,127,127,-0.012301,0.003671,0.019902,-0.024741,-0.003744,0.001606,0,0,0,0,0,0,0
1.006836417,0.209086852,-1.826347,-0.002364,-0.001438,0,3,61534,13.92,127,127,127,-0.012301,0.003698,0.019958,-0.02474,-0.004968,-0.00037,0,0,0,0,0,0,0
1.006836417,0.209086852,-1.82156,0.001607,0.001311,0,3,61553,13.939,127,127,127,-0.012302,0.00372,0.02,-0.024735,-0.002972,0.000616,0,0,0,0,0,0,0
1.006836417,0.209086852,-1.802411,-0.006182,0.0007,0,3,61573,13.959,127,127,127,-0.012302,0.003742,0.020045,-0.024756,-0.007177,0.00033,0,0,0,0,0,0,0
1.006836417,0.209086852,-1.79164,-0.002211,0.002686,0,3,61593,13.979,127,127,127,-0.012303,0.003764,0.020091,-0.024762,-0.004927,0.000968,0,0,0,0,0,0,0
1.006836417,0.209086852,-1.790443,0.002523,0.001769,0,3,61613,13.999,127,127,127,-0.012303,0.003782,0.020126,-0.024743,-0.002145,0.000585,0,0,0,0,0,0,0
1.006836417,0.209086852,-1.822757,-0.001906,0.001311,0,3,61634,14.02,127,127,127,-0.012303,0.003799,0.020161,-0.024748,-0.004814,0.000483,0,0,0,0,0,0,0
1.006836417,0.209086852,-1.809592,-0.004655,0.000395,0,3,61653,14.039,127,127,127,-0.012304,0.003827,0.020216,-0.024774,-0.006665,0.000296,0,0,0,0,0,0,0
1.006836417,0.209086852,-1.823954,-0.006182,0.001464,0,3,61673,14.059,127,127,127,-0.012304,0.003853,0.02027,-0.024838,-0.008339,0.000631,0,0,0,0,0,0,0
1.006836417,0.209086852,-1.813182,-0.009236,0.003602,0,3,61693,14.079,127,127,127,-0.012304,0.003849,0.020261,-0.02486,-0.008476,0.000986,0,0,0,0,0,0,0
1.006836417,0.209086852,-1.81797,-0.00328,0.003907,0,3,61713,14.099,127,127,127,-0.012305,0.003867,0.020298,-0.024897,-0.00621,0.001234,0,0,0,0,0,0,0
1.006836417,0.209086852,-1.833528,-0.000073,0.003907,0,3,61734,14.12,127,127,127,-0.012305,0.003906,0.020376,-0.024876,-0.003173,0.001372,0,0,0,0,0,0,0
1.006836417,0.209086852,-1.807198,-0.000531,0.00742,0,3,61753,14.139,127,127,127,-0.012306,0.003946,0.020457,-0.024838,-0.002797,0.002433,0,0,0,0,0,0,0
1.006836417,0.209086852,-1.815576,-0.001142,0.000242,0,3,61773,14.159,127,127,127,-0.012307,0.004001,0.020568,-0.024821,-0.003919,0.000272,0,0,0,0,0,0,0
1.006836417,0.209086852,-1.834725,-0.007709,0.001464,0,3,61793,14.179,127,127,127,-0.012308,0.004024,0.020614,-0.024884,-0.009027,0.000605,0,0,0,0,0,0,0
1.006836417,0.209086852,-1.801214,-0.002516,0.00406,0,3,61813,14.199,127,127,127,-0.012308,0.00403,0.020626,-0.024923,-0.0059,0.001218,0,0,0,0,0,0,0
1.006836417,0.209086852,-1.820363,-0.002058,0.002991,0,3,61834,14.22,127,127,127,-0.012309,0.004061,0.020688,-0.024969,-0.005973,0.001033,0,0,0,0,0,0,0
1.006836417,0.209086852,-1.816773,-0.002058,-0.000063,0,3,61853,14.239,127,127,127,-0.012309,0.004075,0.020717,-0.024969,-0.004827,-0.000004,0,0,0,0,0,0,0
1.006836417,0.209086852,-1.840709,0.001607,0.001464,0,3,61873,14.259,127,127,127,-0.012309,0.004105,0.020777,-0.024969,-0.003129,0.000695,0,0,0,0,0,0,0
1.006836417,0.209086852,-1.823954,-0.00496,-0.00098,0,3,61893,14.279,127,127,127,-0.01231,0.004139,0.020845,-0.024977,-0.00641,-0.000089,0,0,0,0,0,0,0
1.006836417,0.209086852,-1.800017,-0.005113,0.002533,0,3,61913,14.299,127,127,127,-0.012311,0.004163,0.020895,-0.025015,-0.007139,0.000979,0,0,0,0,0,0,0
1.006836417,0.209086852,-1.808395,-0.0016,0.001311,0,3,61934,14.32,127,127,127,-0.012311,0.004199,0.020967,-0.025024,-0.004834,0.000595,0,0,0,0,0,0,0
1.006836417,0.209086852,-1.810789,-0.001906,0.003602,0,3,61953,14.339,127,127,127,-0.012312,0.004225,0.021019,-0.025063,-0.005692,0.001244,0,0,0,0,0,0,0
1.006836417,0.209086852,-1.804805,-0.003891,0.002838,0,3,61973,14.359,127,127,127,-0.012313,0.004253,0.021076,-0.025099,-0.006552,0.000961,0,0,0,0,0,0,0
1.006836417,0.209086852,-1.809592,-0.00328,0.004213,0,3,61993,14.379,127,127,127,-0.012313,0.004281,0.021131,-0.02514,-0.006349,0.001403,0,0,0,0,0,0,0
1.006836417,0.209086852,-1.801214,-0.00496,0.005587,0,3,62013,14.399,127,127,127,-0.012314,0.004309,0.021187,-0.025156,-0.006374,0.001772,0,0,0,0,0,0,0
1.006836417,0.209086852,-1.810789,-0.002975,0.002838,0,3,62034,14.42,127,127,127,-0.012314,0.00432,0.021211,-0.025191,-0.00608,0.000774,0,0,0,0,0,0,0
1.006836417,0.209086852,-1.802411,-0.000837,0.003449,0,3,62053,14.439,127,127,127,-0.012314,0.004342,0.021254,-0.025203,-0.00451,0.001142,0,0,0,0,0,0,0
1.006836417,0.209086852,-1.814379,-0.007098,0.002838,0,3,62073,14.459,127,127,127,-0.012315,0.004357,0.021285,-0.025213,-0.007275,0.000864,0,0,0,0,0,0,0
1.006836417,0.209086852,-1.803608,-0.000226,-0.000369,0,3,62093,14.479,127,127,127,-0.012315,0.004377,0.021325,-0.025242,-0.004864,-0.000033,0,0,0,0,0,0,0
1.006836417,0.209086852,-1.802411,-0.007556,-0.000674,0,3,62113,14.499,127,127,127,-0.012316,0.004395,0.021362,-0.02528,-0.008396,-0.000049,0,0,0,0,0,0,0
1.006836417,0.209086852,-1.833528,-0.001295,0.000548,0,3,62134,14.52,127,127,127,-0.012316,0.004404,0.021379,-0.025321,-0.005664,0.000248,0,0,0,0,0,0,0
1.006836417,0.209086852,-1.806001,0.000232,0.004976,0,3,62153,14.539,127,127,127,-0.012316,0.004409,0.02139,-0.025326,-0.003781,0.001531,0,0,0,0,0,0,0
1.006836417,0.209086852,-1.809592,-0.005418,0.002228,0,3,62173,14.559,127,127,127,-0.012317,0.004438,0.021449,-0.025363,-0.007311,0.000754,0,0,0,0,0,0,0
1.006836417,0.209086852,-1.82156,-0.004655,0.00574,0,3,62193,14.579,127,127,127,-0.012317,0.004465,0.021502,-0.025388,-0.006511,0.001875,0,0,0,0,0,0,0
1.006836417,0.209086852,-1.814379,-0.001753,-0.002965,0,3,62213,14.599,127,127,127,-0.012318,0.004506,0.021586,-0.025395,-0.005072,-0.000745,0,0,0,0,0,0,0
1.006836417,0.209086852,-1.81797,-0.002822,0.003755,0,3,62234,14.62,127,127,127,-0.012318,0.004489,0.021551,-0.025418,-0.005704,0.001076,0,0,0,0,0,0,0
1.006836417,0.209086852,-1.81797,-0.002211,0.001311,0,3,62253,14.639,127,127,127,-0.012318,0.004516,0.021605,-0.02545,-0.00579,0.000509,0,0,0,0,0,0,0
1.006836417,0.209086852,-1.809592,-0.003738,0.002686,0,3,62273,14.659,127,127,127,-0.012319,0.004538,0.021649,-0.025491,-0.006678,0.000941,0,0,0,0,0,0,0
1.006836417,0.209086852,-1.804805,-0.004349,0.001311,0,3,62293,14.679,127,127,127,-0.012319,0.004557,0.021689,-0.025538,-0.007177,0.000463,0,0,0,0,0,0,0
1.006836417,0.209086852,-1.825151,-0.003738,-0.000521,0,3,62313,14.699,127,127,127,-0.012319,0.004559,0.021692,-0.025546,-0.005911,-0.000189,0,0,0,0,0,0,0
1.006836417,0.209086852,-1.815576,-0.007403,-0.001438,0,3,62334,14.72,127,127,127,-0.012319,0.004556,0.021686,-0.025601,-0.008882,-0.000435,0,0,0,0,0,0,0
1.006836417,0.209086852,-1.79882,-0.001295,0.004213,0,3,62353,14.739,127,127,127,-0.012319,0.004552,0.021678,-0.025625,-0.005051,0.001292,0,0,0,0,0,0,0
1.006836417,0.209086852,-1.816773,0.002981,0.005435,0,3,62373,14.759,127,127,127,-0.012319,0.004575,0.021724,-0.025601,-0.001789,0.001701,0,0,0,0,0,0,0
1.006836417,0.209086852,-1.803608,-0.006334,0.003449,0,3,62393,14.779,127,127,127,-0.01232,0.004601,0.021776,-0.025638,-0.007706,0.001076,0,0,0,0,0,0,0
1.006836417,0.209086852,-1.814379,-0.003738,-0.001743,0,3,62413,14.799,127,127,127,-0.012321,0.004632,0.021838,-0.025677,-0.006855,-0.00038,0,0,0,0,0,0,0
1.006836417,0.209086852,-1.809592,-0.005113,-0.001438,0,3,62434,14.82,127,127,127,-0.012321,0.004633,0.021841,-0.02571,-0.007259,-0.000378,0,0,0,0,0,0,0
1.006836417,0.209086852,-1.802411,-0.004655,0.006962,0,3,62454,14.84,127,127,127,-0.012321,0.004629,0.021832,-0.025731,-0.006392,0.00211,0,0,0,0,0,0,0
1.006836417,0.209086852,-1.826347,0.000843,0.004366,0,3,62474,14.86,127,127,127,-0.012321,0.004664,0.021904,-0.025708,-0.002814,0.001395,0,0,0,0,0,0,0
1.006836417,0.209086852,-1.808395,-0.002058,-0.00098,0,3,62494,14.88,127,127,127,-0.012322,0.0047,0.021975,-0.025719,-0.005305,-0.000146,0,0,0,0,0,0,0
1.006836417,0.209086852,-1.822757,-0.00328,0.006351,0,3,62514,14.9,127,127,127,-0.012322,0.004705,0.021986,-0.025727,-0.005444,0.001982,0,0,0,0,0,0,0
1.006836417,0.209086852,-1.827544,-0.003891,0.000089,0,3,62534,14.92,127,127,127,-0.012323,0.004741,0.022058,-0.025732,-0.005887,0.000114,0,0,0,0,0,0,0
1.006836417,0.209086852,-1.807198,-0.000378,0.003449,0,3,62554,14.94,127,127,127,-0.012323,0.00475,0.022077,-0.025734,-0.004119,0.001116,0,0,0,0,0,0,0
1.006836417,0.209086852,-1.796427,-0.001753,0.003144,0,3,62574,14.96,127,127,127,-0.012324,0.004781,0.022138,-0.025729,-0.00455,0.001086,0,0,0,0,0,0,0
1.006836417,0.209086852,-1.833528,0.001454,0.000395,0,3,62594,14.98,127,127,127,-0.012325,0.004807,0.022193,-0.025725,-0.003243,0.000234,0,0,0,0,0,0,0
1.006836417,0.209086852,-1.809592,-0.002822,-0.000827,0,3,62614,15,127,127,127,-0.012325,0.004825,0.022227,-0.025732,-0.005505,-0.000128,0,0,0,0,0,0,0
1.006836414,0.209086826,-1.801214,0.000232,0.004366,0,3,62634,15.02,149,149,149,-0.012325,0.004823,0.022224,-0.025739,-0.005574,0.000157,0,0,0,0,0,0,0
1.006836414,0.209086826,-1.820363,-0.006182,0.003449,0,3,62654,15.04,149,149,149,-0.072045,-0.010182,0.009422,-0.025734,-0.006788,0.001197,-0.000015,0,0,0,0,0,0
1.006836414,0.209086826,-1.819166,-0.002211,0.004671,0,3,62674,15.06,149,149,149,-0.072046,-0.010172,0.009443,-0.025753,-0.005314,0.001375,-0.000002,0,0,0,0,0,0
1.006836414,0.209086826,-1.797624,-0.002211,0.005435,0,3,62694,15.08,149,149,149,-0.072046,-0.010147,0.009492,-0.025766,-0.005163,0.001704,0,0,0,0,0,0,0
1.006836414,0.209086826,-1.79882,-0.003738,0.004366,0,3,62714,15.1,149,149,149,-0.072046,-0.010112,0.009564,-0.025799,-0.00644,0.001437,0,0,0,0,0,0,0
1.006836414,0.209086826,-1.838316,0.000232,0.001769,0,3,62734,15.12,149,149,149,-0.072046,-0.01008,0.009627,-0.025786,-0.003478,0.000647,0,0,0,0,0,0,0
1.006836414,0.209086826,-1.807198,-0.002058,0.003602,0,3,62754,15.14,149,149,149,-0.072047,-0.010064,0.009659,-0.025763,-0.004172,0.001155,0,0,0,0,0,0,0
1.006836414,0.209086826,-1.804805,-0.000531,0.006198,0,3,62774,15.16,149,149,149,-0.072047,-0.010044,0.0097,-0.025775,-0.004351,0.001924,0,0,0,0,0,0,0
1.006836414,0.209086826,-1.816773,-0.001906,0.002533,0,3,62794,15.18,149,149,149,-0.072047,-0.009997,0.009795,-0.025823,-0.006114,0.000956,0,0,0,0,0,0,0
1.006836414,0.209086826,-1.811985,-0.0016,0.006045,0,3,62814,15.2,149,149,149,-0.072047,-0.009972,0.009845,-0.025832,-0.004734,0.001937,0,0,0,0,0,0,0
1.006836414,0.209086826,-1.81797,-0.004349,0.000853,0,3,62834,15.22,149,149,149,-0.072048,-0.009941,0.009907,-0.025847,-0.00449,0.000636,0,0,0,0,0,0,0
1.006836414,0.209086826,-1.806001,-0.002516,0.0007,0,3,62854,15.24,149,149,149,-0.072048,-0.009929,0.009932,-0.025871,-0.005807,0.000251,0,0,0,0,0,0,0
1.006836414,0.209086826,-1.79523,-0.002975,0.000548,0,3,62873,15.259,149,149,149,-0.072048,-0.009907,0.009977,-0.025912,-0.00648,0.000327,0,0,0,0,0,0,0
1.006836414,0.209086826,-1.831135,-0.001447,0.004366,0,3,62893,15.279,149,149,149,-0.072048,-0.009897,0.009996,-0.025946,-0.005463,0.001371,0,0,0,0,0,0,0
1.006836414,0.209086826,-1.804805,-0.004196,0.003907,0,3,62913,15.299,149,149,149,-0.072049,-0.009863,0.010065,-0.025982,-0.006761,0.001319,0,0,0,0,0,0,0
1.006836414,0.209086826,-1.810789,-0.003127,0.000089,0,3,62934,15.32,149,149,149,-0.072049,-0.009838,0.010115,-0.026012,-0.006293,0.000099,0,0,0,0,0,0,0
1.006836414,0.209086826,-1.808395,-0.000684,0.000395,0,3,62953,15.339,149,149,149,-0.072049,-0.009838,0.010116,-0.026005,-0.004148,0.00012,0,0,0,0,0,0,0
1.006836414,0.209086826,-1.815576,-0.00664,0.002533,0,3,62973,15.359,149,149,149,-0.072049,-0.009836,0.01012,-0.02607,-0.008731,0.000773,0,0,0,0,0,0,0
1.006836414,0.209086826,-1.810789,-0.002669,0.003297,0,3,62993,15.379,149,149,149,-0.072049,-0.009827,0.010139,-0.02612,-0.006504,0.000995,0,0,0,0,0,0,0
1.006836414,0.209086826,-1.786852,-0.006793,0.000853,0,3,63013,15.399,149,149,149,-0.072049,-0.009815,0.010162,-0.026183,-0.008843,0.000251,0,0,0,0,0,0,0
1.006836414,0.209086826,-1.809592,-0.002364,0.001006,0,3,63034,15.42,149,149,149,-0.072049,-0.009817,0.010158,-0.026196,-0.005441,0.000267,0,0,0,0,0,0,0
1.006836414,0.209086826,-1.82156,-0.006945,0.001922,0,3,63053,15.439,149,149,149,-0.072049,-0.0098,0.010192,-0.026251,-0.00867,0.000696,0,0,0,0,0,0,0
1.006836414,0.209086826,-1.810789,-0.004044,-0.00098,0,3,63073,15.459,149,149,149,-0.072049,-0.00978,0.010232,-0.026293,-0.007121,-0.000202,0,0,0,0,0,0,0
1.006836414,0.209086826,-1.828741,-0.001447,-0.00159,0,3,63093,15.479,149,149,149,-0.072049,-0.009778,0.010235,-0.026311,-0.005318,-0.000439,0,0,0,0,0,0,0
1.006836414,0.209086826,-1.813182,-0.003891,-0.002201,0,3,63113,15.499,149,149,149,-0.07205,-0.00976,0.010274,-0.026338,-0.006685,-0.000459,0,0,0,0,0,0,0
1.006836414,0.209086826,-1.81797,-0.003738,0.000242,0,3,63134,15.52,149,149,149,-0.07205,-0.009759,0.010276,-0.026376,-0.006847,0.000135,0,0,0,0,0,0,0
1.006836414,0.209086826,-1.819166,-0.004044,0.00238,0,3,63153,15.539,149,149,149,-0.07205,-0.009743,0.010308,-0.026388,-0.006173,0.000839,0,0,0,0,0,0,0
1.006836414,0.209086826,-1.806001,-0.004349,0.002533,0,3,63173,15.559,149,149,149,-0.07205,-0.009739,0.010315,-0.026436,-0.007263,0.00071,0,0,0,0,0,0,0
1.006836414,0.209086826,-1.802411,-0.004349,-0.000063,0,3,63193,15.579,149,149,149,-0.07205,-0.009712,0.010369,-0.026456,-0.006662,0.000132,0,0,0,0,0,0,0
1.006836414,0.209086826,-1.820363,-0.003891,0.00406,0,3,63213,15.599,149,149,149,-0.07205,-0.009701,0.010393,-0.02647,-0.006093,0.001313,0,0,0,0,0,0,0
1.006836414,0.209086826,-1.820363,-0.0016,0.001922,0,3,63234,15.62,149,149,149,-0.072051,-0.00966,0.010473,-0.026501,-0.005642,0.000779,0,0,0,0,0,0,0
1.006836414,0.209086826,-1.825151,-0.004044,-0.000063,0,3,63254,15.64,149,149,149,-0.072051,-0.009657,0.010481,-0.026497,-0.005816,-0.000067,0,0,0,0,0,0,0
1.006836414,0.209086826,-1.779671,-0.00328,0.002533,0,3,63274,15.66,149,149,149,-0.072051,-0.009658,0.010478,-0.026545,-0.006829,0.000764,0,0,0,0,0,0,0
1.006836414,0.209086826,-1.807198,-0.006182,0.001158,0,3,63294,15.68,149,149,149,-0.072051,-0.00966,0.010475,-0.026624,-0.009063,0.000265,0,0,0,0,0,0,0
1.006836414,0.209086826,-1.786852,-0.002822,0.001769,0,3,63314,15.7,149,149,149,-0.072051,-0.009658,0.010479,-0.026622,-0.005269,0.000526,0,0,0,0,0,0,0
1.006836414,0.209086826,-1.819166,-0.004502,0.000853,0,3,63334,15.72,149,149,149,-0.072051,-0.009646,0.010502,-0.026642,-0.005074,0.002147,0,0,0,0,0,0,0
1.006836414,0.209086826,-1.809592,-0.003891,0.001006,0,3,63354,15.74,149,149,149,-0.072051,-0.009613,0.01057,-0.026679,-0.006896,0.00036,0,0,0,0,0,0,0
1.006836414,0.209086826,-1.813182,-0.002822,0.001617,0,3,63374,15.76,149,149,149,-0.072051,-0.0096,0.010595,-0.026694,-0.005774,0.000559,0,0,0,0,0,0,0
1.006836414,0.209086826,-1.807198,-0.002364,0.003602,0,3,63394,15.78,149,149,149,-0.072051,-0.009585,0.010626,-0.026696,-0.005145,0.00116,0,0,0,0,0,0,0
1.006836414,0.209086826,-1.810789,-0.001906,0.002228,0,3,63414,15.8,149,149,149,-0.072052,-0.009551,0.010694,-0.026713,-0.005403,0.000835,0,0,0,0,0,0,0
1.006836414,0.209086826,-1.831135,-0.002669,0.003144,0,3,63434,15.82,149,149,149,-0.072052,-0.009537,0.010722,-0.026723,-0.005519,0.000982,0,0,0,0,0,0,0
1.006836414,0.209086826,-1.82156,-0.007556,0.002991,0,3,63454,15.84,149,149,149,-0.072052,-0.009511,0.010775,-0.026769,-0.008693,0.001016,0,0,0,0,0,0,0
1.006836414,0.209086826,-1.811985,-0.006945,-0.002049,0,3,63474,15.86,149,149,149,-0.072052,-0.00949,0.010818,-0.02687,-0.010177,-0.000546,0,0,0,0,0,0,0
1.006836414,0.209086826,-1.816773,-0.003586,0.001158,0,3,63494,15.88,149,149,149,-0.072053,-0.009479,0.01084,-0.026961,-0.0083,0.000505,0,0,0,0,0,0,0
1.006836414,0.209086826,-1.785655,-0.0016,0.002991,0,3,63514,15.9,149,149,149,-0.072053,-0.009459,0.010879,-0.026971,-0.005062,0.001015,0,0,0,0,0,0,0
1.006836414,0.209086826,-1.825151,-0.002975,0.000853,0,3,63534,15.92,149,149,149,-0.072053,-0.00944,0.010917,-0.027009,-0.0075,-0.000059,0,0,0,0,0,0,0
1.006836414,0.209086826,-1.810789,-0.006029,0.000853,0,3,63554,15.94,149,149,149,-0.072053,-0.009438,0.010922,-0.027055,-0.008179,0.000288,0,0,0,0,0,0,0
1.006836414,0.209086826,-1.79882,-0.004349,0.003755,0,3,63574,15.96,149,149,149,-0.072053,-0.009423,0.010951,-0.027061,-0.006171,0.001227,0,0,0,0,0,0,0
1.006836414,0.209086826,-1.819166,-0.004655,0.002228,0,3,63594,15.98,149,149,149,-0.072054,-0.009394,0.011009,-0.027104,-0.007427,0.000786,0,0,0,0,0,0,0
1.006836414,0.209086826,-1.819166,-0.004807,0.003755,0,3,63614,16,149,149,149,-0.072054,-0.009381,0.011036,-0.02719,-0.008593,0.001167,0,0,0,0,0,0,0
1.006836414,0.209086826,-1.815576,-0.004196,0.002075,0,3,63634,16.02,149,149,149,-0.072054,-0.009367,0.011065,-0.027242,-0.006896,0.000815,0,0,0,0,0,0,0
1.006836414,0.209086826,-1.808395,-0.000226,0.002991,0,3,63654,16.04,149,149,149,-0.072054,-0.009347,0.011105,-0.027261,-0.004761,0.000986,0,0,0,0,0,0,0
1.006836414,0.209086826,-1.806001,-0.005418,0.00238,0,3,63673,16.059,149,149,149,-0.072054,-0.009324,0.011152,-0.027255,-0.006433,0.000808,0,0,0,0,0,0,0
1.006836414,0.209086826,-1.804805,-0.002975,0.005129,0,3,63693,16.079,149,149,149,-0.072054,-0.009307,0.011185,-0.027278,-0.006014,0.001606,0,0,0,0,0,0,0
1.006836414,0.209086826,-1.809592,-0.002516,0.001922,0,3,63713,16.099,149,149,149,-0.072055,-0.009276,0.011248,-0.027327,-0.006667,0.000676,0,0,0,0,0,0,0
1.006836414,0.209086826,-1.801214,-0.00496,0.002686,0,3,63734,16.12,149,149,149,-0.072055,-0.009254,0.011292,-0.027413,-0.008761,0.000925,0,0,0,0,0,0,0
1.006836414,0.209086826,-1.826347,-0.002364,-0.002201,0,3,63753,16.139,149,149,149,-0.072055,-0.009234,0.011332,-0.027448,-0.00641,-0.000591,0,0,0,0,0,0,0
1.006836414,0.209086826,-1.841906,-0.000989,0.000548,0,3,63773,16.159,149,149,149,-0.072055,-0.009226,0.011349,-0.027464,-0.005141,0.000305,0,0,0,0,0,0,0
1.006836414,0.209086826,-1.81797,-0.0016,0.003907,0,3,63793,16.179,149,149,149,-0.072056,-0.009213,0.011374,-0.027479,-0.005286,0.001256,0,0,0,0,0,0,0
1.006836414,0.209086826,-1.79164,-0.00496,0.001311,0,3,63813,16.199,149,149,149,-0.072056,-0.009185,0.011432,-0.02751,-0.007314,0.000504,0,0,0,0,0,0,0
1.006836414,0.209086826,-1.819166,0.000691,0.002075,0,3,63834,16.22,149,149,149,-0.072056,-0.009158,0.011486,-0.027496,-0.003532,0.000803,0,0,0,0,0,0,0
1.006836414,0.209086826,-1.825151,-0.002669,0.003144,0,3,63853,16.239,149,149,149,-0.072056,-0.009135,0.011533,-0.02748,-0.004903,0.001058,0,0,0,0,0,0,0
1.006836414,0.209086826,-1.81797,-0.004196,0.001311,0,3,63874,16.26,149,149,149,-0.072057,-0.009113,0.011575,-0.027488,-0.00634,0.000463,0,0,0,0,0,0,0
1.006836414,0.209086826,-1.820363,-0.001142,0.002991,0,3,63894,16.28,149,149,149,-0.072057,-0.009102,0.011598,-0.027476,-0.004352,0.000951,0,0,0,0,0,0,0
1.006836414,0.209086826,-1.816773,-0.000531,0.000242,0,3,63913,16.299,149,149,149,-0.072057,-0.009085,0.011633,-0.027487,-0.004824,0.000123,0,0,0,0,0,0,0
1.006836414,0.209086826,-1.79882,0.000232,0.002533,0,3,63934,16.32,149,149,149,-0.072057,-0.009078,0.011647,-0.027479,-0.003867,0.000815,0,0,0,0,0,0,0
1.006836414,0.209086826,-1.826347,-0.004502,0.004366,0,3,63954,16.34,149,149,149,-0.072057,-0.009056,0.011691,-0.027486,-0.00632,0.001416,0,0,0,0,0,0,0
1.006836414,0.209086826,-1.807198,-0.004196,0.0007,0,3,63974,16.36,149,149,149,-0.072058,-0.009025,0.011753,-0.027502,-0.006591,0.000322,0,0,0,0,0,0,0
1.006836414,0.209086826,-1.800017,-0.002822,-0.001896,0,3,63994,16.38,149,149,149,-0.072058,-0.009017,0.011769,-0.027543,-0.006781,-0.000535,0,0,0,0,0,0,0
1.006836414,0.209086826,-1.828741,-0.004807,0.001464,0,3,64014,16.4,149,149,149,-0.072058,-0.009034,0.011735,-0.027608,-0.008179,0.000363,0,0,0,0,0,0,0
1.006836414,0.209086826,-1.815576,-0.004502,0.0007,0,3,64034,16.42,149,149,149,-0.072058,-0.009016,0.011771,-0.027655,-0.008967,0.000923,0,0,0,0,0,0,0
1.006836414,0.209086826,-1.79164,-0.008167,0.001464,0,3,64054,16.44,149,149,149,-0.072058,-0.009001,0.011803,-0.027736,-0.010148,0.000479,0,0,0,0,0,0,0
1.006836414,0.209086826,-1.834725,-0.001142,0.003755,0,3,64074,16.46,149,149,149,-0.072058,-0.008992,0.011821,-0.027755,-0.005223,0.001165,0,0,0,0,0,0,0
1.006836414,0.209086826,-1.822757,-0.0016,0.001464,0,3,64094,16.48,149,149,149,-0.072059,-0.008957,0.011891,-0.027756,-0.005003,0.000614,0,0,0,0,0,0,0
1.006836414,0.209086826,-1.807198,-0.005113,0.001617,0,3,64114,16.5,149,149,149,-0.072059,-0.008958,0.011888,-0.027777,-0.007151,0.000415,0,0,0,0,0,0,0
1.006836414,0.209086826,-1.804805,-0.002364,0.004671,0,3,64134,16.52,149,149,149,-0.072059,-0.008945,0.011915,-0.027805,-0.007558,0.000927,0,0,0,0,0,0,0
1.006836414,0.209086826,-1.825151,-0.005724,0.004671,0,3,64154,16.54,149,149,149,-0.072059,-0.008913,0.011978,-0.027845,-0.007829,0.001574,0,0,0,0,0,0,0
1.006836414,0.209086826,-1.788049,-0.003738,-0.000674,0,3,64174,16.56,149,149,149,-0.072059,-0.008895,0.012015,-0.02789,-0.007292,-0.000211,0,0,0,0,0,0,0
