Lat GPS (deg),Long GPS (deg),Accelerometer Y (rad/s^2),Gyroscope X (rad/s),Gyroscope Z (rad/s),Steering Angle encoder(rad),Speed GPS (m/s),Time (ms),Time,flag,flag,flag,State Estimate X (m),State Estimate Y (m),State Estimate Psi (rad),State Estimate Roll (rad),State Estimate Rollrate (rad/s),State Estimate Delta (rad),State Estimate Velocity (m/s),Steerrate input (rad/s),drct,drct,drct,drct,drct
0,0,-1.783262,-0.011527,-0.000827,0,3,978916,0,0,0,0,0.54,0.000053,0.000093,-0.000821,-0.009648,-0.000075,3,0,0,0,0,0,0
0,0,-1.819166,-0.00664,-0.001896,0,3,978936,0.02,0,0,0,0.6,0.000059,0.000094,-0.000969,-0.007279,-0.00056,3,0,0,0,0,0,0
0,0,-1.801214,-0.004655,0.002533,0,3,978956,0.04,0,0,0,0.66,0.000041,0.000047,-0.001043,-0.004162,0.000631,3,0,0,0,0,0,0
0,0,-1.790443,-0.006793,0.002838,0,3,978976,0.06,0,0,0,0.72,0.000043,0.000046,-0.001129,-0.005469,0.000783,3,0,0,0,0,0,0
0,0,-1.852677,-0.00328,0.004671,0,3,978996,0.08,0,0,0,0.78,0.000055,0.000063,-0.001186,-0.003002,0.001398,3,0,0,0,0,0,0
0,0,-1.801214,-0.006945,0.000548,0,3,979016,0.1,0,0,0,0.84,0.000099,0.000141,-0.001268,-0.005569,0.000336,3,0,0,0,0,0,0
0,0,-1.820363,-0.005113,-0.000521,0,3,979036,0.12,0,0,0,0.9,0.000129,0.000185,-0.001308,-0.00143,0.000909,3,0,0,0,0,0,0
0,0,-1.822757,-0.004502,0.000242,0,3,979056,0.14,0,0,0,0.96,0.000152,0.000207,-0.001385,-0.00435,0.000066,3,0,0,0,0,0,0
0,0,-1.782065,-0.003586,0.000089,0,3,979076,0.16,0,0,0,1.02,0.000159,0.000196,-0.001458,-0.003828,-0.000022,3,0,0,0,0,0,0
0,0,-1.785655,-0.006334,0.002991,0,3,979096,0.18,0,0,0,1.08,0.000158,0.000171,-0.001525,-0.004786,0.000802,3,0,0,0,0,0,0
0,0,-1.802411,-0.003433,0.001464,0,3,979116,0.2,0,0,0,1.14,0.000186,0.000206,-0.001619,-0.004336,0.000499,3,0,0,0,0,0,0
0,0,-1.809592,-0.001753,-0.000369,0,3,979136,0.22,0,0,0,1.2,0.000199,0.000205,-0.001689,-0.002964,-0.000164,3,0,0,0,0,0,0
0,0,-1.834725,-0.00496,-0.002659,0,3,979156,0.24,0,0,0,1.26,0.000208,0.0002,-0.001781,-0.005161,-0.000807,3,0,0,0,0,0,0
0,0,-1.807198,-0.004502,-0.004187,0,3,979176,0.26,0,0,0,1.32,0.000207,0.000174,-0.001879,-0.005175,-0.001284,3,0,0,0,0,0,0
0,0,-1.79523,-0.005418,0.000395,0,3,979196,0.28,0,0,0,1.38,0.000194,0.00013,-0.001969,-0.005184,0.000074,3,0,0,0,0,0,0
0,0,-1.831135,-0.006334,-0.001743,0,3,979216,0.3,0,0,0,1.44,0.000211,0.000148,-0.002079,-0.006272,-0.00046,3,0,0,0,0,0,0
0,0,-1.785655,-0.002058,-0.001438,0,3,979236,0.32,0,0,0,1.5,0.00021,0.000127,-0.002146,-0.003137,-0.000468,3,0,0,0,0,0,0
0,0,-1.819166,-0.005113,-0.005866,0,3,979256,0.34,0,0,0,1.56,0.000222,0.000137,-0.002278,-0.006548,-0.001681,3,0,0,0,0,0,0
0,0,-1.81797,-0.008014,0.001464,0,3,979276,0.36,0,0,0,1.62,0.000209,0.000097,-0.002373,-0.006512,0.000453,3,0,0,0,0,0,0
0,0,-1.829938,-0.001447,0.002686,0,3,979296,0.38,0,0,0,1.68,0.000219,0.000106,-0.002443,-0.00283,0.000802,3,0,0,0,0,0,0
0,0,-1.832331,-0.005113,0.002838,0,3,979316,0.4,0,0,0,1.74,0.000245,0.000144,-0.00251,-0.004404,0.000926,3,0,0,0,0,0,0
0,0,-1.803608,-0.004196,0.001617,0,3,979336,0.42,0,0,0,1.8,0.000275,0.000185,-0.002597,-0.004634,0.00056,3,0,0,0,0,0,0
0,0,-1.792836,-0.004502,0.001158,0,3,979356,0.44,0,0,0,1.86,0.000299,0.00021,-0.002684,-0.00476,0.000393,3,0,0,0,0,0,0
0,0,-1.828741,-0.002516,0.001158,0,3,979376,0.46,0,0,0,1.92,0.000313,0.000213,-0.002732,-0.002817,-0.000511,3,0,0,0,0,0,0
0,0,-1.808395,-0.007098,0.000853,0,3,979396,0.48,0,0,0,1.98,0.000323,0.000207,-0.002769,-0.001956,0.000152,3,0,0,0,0,0,0
0,0,-1.802411,-0.003738,-0.003881,0,3,979416,0.5,0,0,0,2.04,0.000341,0.000218,-0.002858,-0.004721,-0.001142,3,0,0,0,0,0,0
0,0,-1.807198,-0.003891,-0.003118,0,3,979436,0.52,0,0,0,2.1,0.000342,0.000196,-0.00294,-0.004577,-0.000912,3,0,0,0,0,0,0
0,0,-1.796427,-0.006182,-0.000521,0,3,979456,0.54,0,0,0,2.16,0.000351,0.000192,-0.002987,-0.004553,-0.00008,3,0,0,0,0,0,0
0,0,-1.828741,-0.003433,-0.001896,0,3,979476,0.56,0,0,0,2.22,0.000358,0.000182,-0.003094,-0.005049,-0.000602,3,0,0,0,0,0,0
0,0,-1.813182,-0.003891,0.004213,0,3,979496,0.58,0,0,0,2.28,0.00037,0.000186,-0.003164,-0.004009,0.001351,3,0,0,0,0,0,0
0,0,-1.792836,-0.005265,0.000548,0,3,979516,0.6,0,0,0,2.34,0.000401,0.000224,-0.003265,-0.005604,0.000179,3,0,0,0,0,0,0
0,0,-1.826347,-0.002364,0.0007,0,3,979536,0.62,0,0,0,2.4,0.00042,0.000236,-0.003329,-0.003325,0.000242,3,0,0,0,0,0,0
0,0,-1.81797,-0.001906,0.003297,0,3,979556,0.64,0,0,0,2.46,0.000432,0.00023,-0.003415,-0.003608,0.000951,3,0,0,0,0,0,0
0,0,-1.811985,-0.002669,0.004213,0,3,979576,0.66,0,0,0,2.52,0.000459,0.000255,-0.003474,-0.003185,0.001277,3,0,0,0,0,0,0
0,0,-1.785655,-0.004196,-0.000063,0,3,979596,0.68,0,0,0,2.58,0.000501,0.000308,-0.003555,-0.004671,0.000061,3,0,0,0,0,0,0
0,0,-1.811985,-0.005265,0.000089,0,3,979616,0.7,0,0,0,2.64,0.000525,0.000317,-0.003658,-0.005756,0.00006,3,0,0,0,0,0,0
0,0,-1.828741,-0.004502,0.003449,0,3,979636,0.72,0,0,0,2.7,0.000541,0.000312,-0.003744,-0.004834,0.001012,3,0,0,0,0,0,0
0,0,-1.820363,-0.006182,0.001617,0,3,979656,0.74,0,0,0,2.76,0.000577,0.000345,-0.003847,-0.006116,0.000517,3,0,0,0,0,0,0
0,0,-1.794033,-0.000684,0.001006,0,3,979676,0.76,0,0,0,2.82,0.000623,0.000396,-0.003908,-0.002582,0.000461,3,0,0,0,0,0,0
1.006837412,0.209086352,-1.794033,-0.004655,-0.000674,0,3,979696,0.78,0,0,0,2.88,0.000665,0.000432,-0.003986,-0.004876,-0.000104,3,0,0,0,0,0,0
1.006837412,0.209086352,-1.786852,-0.001142,0.001617,0,3,979716,0.8,0,0,0,2.94,0.000695,0.000439,-0.004055,-0.002995,0.000532,3,0,0,0,0,0,0
1.006837412,0.209086352,-1.808395,-0.005724,0.002533,0,3,979736,0.82,0,0,0,3,0.000727,0.00045,-0.004116,-0.004777,0.000753,3,0,0,0,0,0,0
1.006837412,0.209086352,-1.800017,-0.00328,-0.002049,0,3,979756,0.84,0,0,0,3.06,0.000772,0.000486,-0.00416,-0.003416,-0.000554,3,0,0,0,0,0,0
1.006837412,0.209086352,-1.820363,-0.009541,0.000853,0,3,979776,0.86,0,0,0,3.12,0.000803,0.000491,-0.00428,-0.008198,0.000334,3,0,0,0,0,0,0
1.006837412,0.209086352,-1.810789,-0.003891,0.001464,0,3,979796,0.88,0,0,0,3.18,0.000835,0.000494,-0.004355,-0.004425,0.000421,3,0,0,0,0,0,0
1.006837412,0.209086352,-1.806001,-0.004196,-0.00327,0,3,979816,0.9,0,0,0,3.24,0.000871,0.000508,-0.00442,-0.004492,-0.000975,3,0,0,0,0,0,0
1.006837412,0.209086352,-1.808395,-0.000531,0.0007,0,3,979836,0.92,0,0,0,3.3,0.00089,0.000486,-0.004466,-0.002176,0.000226,3,0,0,0,0,0,0
1.006837412,0.209086352,-1.82156,0.000232,-0.000216,0,3,979856,0.94,0,0,0,3.36,0.000921,0.000488,-0.004519,-0.002057,-0.000076,3,0,0,0,0,0,0
1.006837412,0.209086352,-1.796427,-0.005571,0.003755,0,3,979876,0.96,0,0,0,3.42,0.000955,0.000498,-0.00462,-0.005867,0.001185,3,0,0,0,0,0,0
1.006837412,0.209086352,-1.825151,-0.002058,0.004213,0,3,979896,0.98,0,0,0,3.48,0.001028,0.000584,-0.004707,-0.003878,0.0015,3,0,0,0,0,0,0
1.006837412,0.209086352,-1.801214,-0.002364,0.002228,0,3,979916,1,0,0,0,3.54,0.001091,0.000637,-0.004773,-0.003525,0.000733,3,0,0,0,0,0,0
1.006837412,0.209086352,-1.811985,-0.004196,-0.000521,0,3,979937,1.021,0,0,0,3.6,0.001144,0.000665,-0.004821,-0.004903,0.000572,3,0,0,0,0,0,0
1.006837412,0.209086352,-1.815576,-0.002211,0.001617,0,3,979956,1.04,0,0,0,3.66,0.00119,0.000678,-0.004887,-0.003504,0.00048,3,0,0,0,0,0,0
1.006837412,0.209086352,-1.813182,-0.0016,-0.001132,0,3,979976,1.06,0,0,0,3.72,0.001244,0.000704,-0.00495,-0.003267,-0.000283,3,0,0,0,0,0,0
1.006837412,0.209086352,-1.822757,0.001149,-0.002659,0,3,979996,1.08,0,0,0,3.78,0.001285,0.000702,-0.004999,-0.001753,-0.000775,3,0,0,0,0,0,0
1.006837412,0.209086352,-1.794033,-0.002669,0.001006,0,3,980016,1.1,0,0,0,3.84,0.001318,0.000683,-0.005055,-0.003474,0.000309,3,0,0,0,0,0,0
1.006837412,0.209086352,-1.79882,-0.001906,0.005129,0,3,980037,1.121,0,0,0,3.9,0.00136,0.000686,-0.005128,-0.003443,0.001529,3,0,0,0,0,0,0
1.006837412,0.209086352,-1.794033,-0.006334,-0.002812,0,3,980056,1.14,0,0,0,3.96,0.001444,0.000769,-0.005193,-0.005576,-0.000671,3,0,0,0,0,0,0
1.006837412,0.209086352,-1.823954,-0.006793,-0.001743,0,3,980076,1.16,0,0,0,4.02,0.001492,0.000774,-0.005288,-0.006553,-0.000435,3,0,0,0,0,0,0
1.006837412,0.209086352,-1.807198,-0.002211,0.002991,0,3,980096,1.18,0,0,0,4.08,0.001529,0.000756,-0.005349,-0.003373,0.000875,3,0,0,0,0,0,0
1.006837412,0.209086352,-1.79164,-0.002822,-0.000827,0,3,980116,1.2,0,0,0,4.14,0.001585,0.000775,-0.005416,-0.004002,-0.00026,3,0,0,0,0,0,0
1.006837412,0.209086352,-1.797624,-0.002058,0.003449,0,3,980137,1.221,0,0,0,4.2,0.001633,0.000779,-0.005445,-0.002413,0.001086,3,0,0,0,0,0,0
1.006837412,0.209086352,-1.806001,-0.004044,0.001769,0,3,980156,1.24,0,0,0,4.26,0.001709,0.000837,-0.005491,-0.003863,0.000656,3,0,0,0,0,0,0
1.006837412,0.209086352,-1.829938,-0.006029,0.002075,0,3,980176,1.26,0,0,0,4.319999,0.001784,0.000886,-0.00556,-0.00539,0.000757,3,0,0,0,0,0,0
1.006837412,0.209086352,-1.802411,-0.003433,0.005282,0,3,980196,1.28,0,0,0,4.379999,0.001855,0.00092,-0.005649,-0.004666,0.001657,3,0,0,0,0,0,0
1.006837412,0.209086352,-1.808395,-0.003586,0.001617,0,3,980216,1.3,0,0,0,4.439999,0.001942,0.000981,-0.005741,-0.004956,0.000565,3,0,0,0,0,0,0
1.006837412,0.209086352,-1.806001,-0.007251,0.001464,0,3,980237,1.321,0,0,0,4.499999,0.002011,0.001002,-0.005818,-0.006226,0.000464,3,0,0,0,0,0,0
1.006837412,0.209086352,-1.782065,-0.006029,0.001617,0,3,980256,1.34,0,0,0,4.559999,0.002084,0.001026,-0.005939,-0.006886,0.000541,3,0,0,0,0,0,0
1.006837412,0.209086352,-1.801214,-0.00328,0.004824,0,3,980276,1.36,0,0,0,4.619999,0.002163,0.001061,-0.006014,-0.004267,0.001545,3,0,0,0,0,0,0
1.006837412,0.209086352,-1.807198,-0.006029,0.000548,0,3,980296,1.38,0,0,0,4.679999,0.002263,0.001132,-0.006111,-0.006314,0.000292,3,0,0,0,0,0,0
1.006837412,0.209086352,-1.833528,-0.002364,0.003144,0,3,980316,1.4,0,0,0,4.739999,0.002342,0.001153,-0.006259,-0.008822,0.000774,3,0,0,0,0,0,0
1.006837412,0.209086352,-1.823954,-0.002822,0.0007,0,3,980337,1.421,0,0,0,4.799999,0.002435,0.0012,-0.006332,-0.004227,0.000323,3,0,0,0,0,0,0
1.006837412,0.209086352,-1.825151,-0.00496,0.002533,0,3,980356,1.44,0,0,0,4.859999,0.002514,0.001214,-0.006396,-0.004891,0.000791,3,0,0,0,0,0,0
1.006837412,0.209086352,-1.820363,-0.007862,-0.00159,0,3,980376,1.46,0,0,0,4.919999,0.0026,0.00124,-0.006506,-0.007623,-0.00046,3,0,0,0,0,0,0
1.006837412,0.209086352,-1.790443,0.000538,0.001769,0,3,980396,1.48,0,0,0,4.979999,0.002672,0.001236,-0.006573,-0.002552,0.000572,3,0,0,0,0,0,0
1.006837412,0.209086352,-1.807198,-0.004502,-0.000521,0,3,980416,1.5,0,0,0,5.039999,0.002741,0.001223,-0.006628,-0.004571,-0.000269,3,0,0,0,0,0,0
1.006837412,0.209086352,-1.811985,-0.005418,0.000853,0,3,980437,1.521,0,0,0,5.069999,0.002774,0.001216,-0.00668,-0.00638,0.000828,3,0,0,0,0,0,0
1.006837412,0.209086352,-1.807198,-0.004044,0.005893,0,3,980456,1.54,0,0,0,5.159999,0.002904,0.001254,-0.006822,-0.00514,0.001813,3,0,0,0,0,0,0
1.006837412,0.209086352,-1.826347,-0.000989,0.002686,0,3,980476,1.56,0,0,0,5.219999,0.003011,0.001315,-0.006928,-0.006648,-0.000514,3,0,0,0,0,0,0
1.006837412,0.209086352,-1.81797,-0.003433,0.001769,0,3,980496,1.58,0,0,0,5.279999,0.003092,0.001321,-0.006978,-0.003939,0.000615,3,0,0,0,0,0,0
1.006837412,0.209086352,-1.786852,-0.002516,-0.003118,0,3,980516,1.6,0,0,0,5.339999,0.003199,0.001375,-0.00703,-0.003775,-0.000785,3,0,0,0,0,0,0
1.006837412,0.209086352,-1.822757,-0.003127,0.003907,0,3,980537,1.621,0,0,0,5.399998,0.00328,0.001373,-0.007106,-0.004471,0.001259,3,0,0,0,0,0,0
1.006837412,0.209086352,-1.810789,-0.007709,-0.003728,0,3,980556,1.64,0,0,0,5.459998,0.003396,0.00144,-0.007192,-0.007084,-0.000989,3,0,0,0,0,0,0
1.006837412,0.209086352,-1.800017,-0.001295,-0.000216,0,3,980576,1.66,0,0,0,5.519998,0.003477,0.00143,-0.007219,-0.002482,0.000002,3,0,0,0,0,0,0
1.006837412,0.209086352,-1.814379,-0.004044,-0.000216,0,3,980596,1.68,0,0,0,5.579998,0.003581,0.001468,-0.00727,-0.004355,0.000088,3,0,0,0,0,0,0
1.006837412,0.209086352,-1.796427,-0.001753,-0.002354,0,3,980616,1.7,0,0,0,5.639998,0.003681,0.00149,-0.00736,-0.004523,-0.000625,3,0,0,0,0,0,0
1.006837412,0.209086352,-1.797624,-0.005876,-0.001132,0,3,980637,1.721,0,0,0,5.699998,0.003763,0.001476,-0.007461,-0.006624,-0.00033,3,0,0,0,0,0,0
1.006837412,0.209086352,-1.794033,-0.001295,-0.004492,0,3,980656,1.74,0,0,0,5.759998,0.003842,0.001458,-0.007539,-0.004067,-0.001392,3,0,0,0,0,0,0
1.006837412,0.209086352,-1.822757,-0.006487,-0.002049,0,3,980676,1.76,0,0,0,5.819998,0.00392,0.001441,-0.007636,-0.006869,-0.000544,3,0,0,0,0,0,0
1.006837412,0.209086352,-1.807198,-0.003738,0.003297,0,3,980696,1.78,0,0,0,5.879998,0.004,0.001428,-0.007747,-0.005815,0.001006,3,0,0,0,0,0,0
1.006837412,0.209086352,-1.79882,-0.00328,0.000089,0,3,980716,1.8,0,0,0,5.939998,0.004108,0.001473,-0.007832,-0.005238,0.00149,3,0,0,0,0,0,0
1.006837412,0.209086352,-1.806001,-0.001142,-0.00327,0,3,980737,1.821,0,0,0,5.969998,0.004172,0.001511,-0.007864,-0.004691,0.000186,3,0,0,0,0,0,0
1.006837412,0.209086352,-1.816773,-0.003433,0.000242,0,3,980756,1.84,0,0,0,6.059998,0.004283,0.001463,-0.007911,-0.003585,-0.000041,3,0,0,0,0,0,0
1.006837412,0.209086352,-1.800017,-0.003433,0.005893,0,3,980776,1.86,0,0,0,6.119998,0.004395,0.001512,-0.007951,-0.003671,0.001982,3,0,0,0,0,0,0
1.006837412,0.209086352,-1.806001,-0.002516,0.002991,0,3,980796,1.88,0,0,0,6.179997,0.004526,0.00159,-0.007946,-0.002536,0.001337,3,0,0,0,0,0,0
1.006837412,0.209086352,-1.804805,-0.004044,-0.000063,0,3,980816,1.9,0,0,0,6.239997,0.004653,0.001652,-0.007979,-0.003092,0.000092,3,0,0,0,0,0,0
1.006837412,0.209086352,-1.827544,-0.004655,-0.001132,0,3,980836,1.92,0,0,0,6.299997,0.004753,0.001654,-0.008043,-0.005129,-0.000342,3,0,0,0,0,0,0
1.006837412,0.209086352,-1.813182,-0.000226,0.001158,0,3,980856,1.94,0,0,0,6.359997,0.004866,0.001682,-0.00809,-0.004148,0.00133,3,0,0,0,0,0,0
1.006837412,0.209086352,-1.808395,-0.004349,0.000853,0,3,980876,1.96,0,0,0,6.419997,0.004991,0.001729,-0.008126,-0.004169,0.000309,3,0,0,0,0,0,0
1.006837412,0.209086352,-1.816773,-0.002364,0.005893,0,3,980896,1.98,0,0,0,6.479997,0.005101,0.001739,-0.008163,-0.002433,0.000733,3,0,0,0,0,0,0
1.006837412,0.209086352,-1.786852,-0.007709,-0.000674,0,3,980916,2,0,0,0,6.539997,0.005239,0.001806,-0.008191,-0.002824,0.000501,3,0,0,0,0,0,0
1.006837412,0.209086352,-1.803608,-0.007251,0.001464,0,3,980936,2.02,0,0,0,6.599997,0.005352,0.001815,-0.0083,-0.007486,0.000427,3,0,0,0,0,0,0
1.006837412,0.209086352,-1.806001,-0.004655,0.004518,0,3,980956,2.04,0,0,0,6.659997,0.005477,0.001847,-0.008339,-0.003824,0.000252,3,0,0,0,0,0,0
1.006837412,0.209086352,-1.838316,-0.002822,0.00238,0,3,980976,2.06,0,0,0,6.719996,0.005609,0.001889,-0.008394,-0.003448,0.001283,3,0,0,0,0,0,0
1.006837412,0.209086352,-1.81797,-0.003127,0.003602,0,3,980996,2.08,0,0,0,6.779996,0.005751,0.001944,-0.00844,-0.004105,-0.000712,3,0,0,0,0,0,0
1.006837412,0.209086352,-1.785655,-0.002822,-0.001438,0,3,981016,2.1,0,0,0,6.839996,0.005871,0.001952,-0.008488,-0.003977,-0.000326,3,0,0,0,0,0,0
1.006837412,0.209086352,-1.796427,-0.00328,0.004518,0,3,981037,2.121,0,0,0,6.899996,0.005995,0.001966,-0.008548,-0.004343,0.000443,3,0,0,0,0,0,0
1.006837412,0.209086352,-1.82156,-0.002058,0.000548,0,3,981056,2.14,0,0,0,6.959996,0.006137,0.002014,-0.008595,-0.003548,0.000316,3,0,0,0,0,0,0
1.006837412,0.209086352,-1.773687,-0.000989,0.001769,0,3,981076,2.16,0,0,0,7.019996,0.006268,0.002035,-0.008659,-0.005596,0.000174,3,0,0,0,0,0,0
1.006837412,0.209086352,-1.828741,-0.005571,0.002686,0,3,981096,2.18,0,0,0,7.079996,0.0064,0.002054,-0.008714,-0.005261,0.000869,3,0,0,0,0,0,0
1.006837412,0.209086352,-1.811985,-0.0016,0.001922,0,3,981116,2.2,0,0,0,7.139995,0.006529,0.002064,-0.008797,-0.004278,0.000535,3,0,0,0,0,0,0
1.006837412,0.209086352,-1.79882,-0.004044,-0.000063,0,3,981137,2.221,0,0,0,7.199995,0.006659,0.002077,-0.008894,-0.006456,0.001222,3,0,0,0,0,0,0
1.006837412,0.209086352,-1.810789,-0.005724,0.003602,0,3,981156,2.24,0,0,0,7.259995,0.006802,0.002111,-0.008943,-0.002569,0.000136,3,0,0,0,0,0,0
1.006837412,0.209086352,-1.806001,-0.00328,-0.001285,0,3,981176,2.26,0,0,0,7.319995,0.006944,0.002143,-0.009008,-0.004723,-0.00027,3,0,0,0,0,0,0
1.006837412,0.209086352,-1.815576,-0.004807,0.001769,0,3,981196,2.28,0,0,0,7.379995,0.007072,0.002141,-0.009066,-0.005074,0.000554,3,0,0,0,0,0,0
1.006837412,0.209086352,-1.788049,-0.00496,0.002991,0,3,981216,2.3,0,0,0,7.439995,0.0072,0.002139,-0.009112,-0.00479,0.00084,3,0,0,0,0,0,0
1.006837412,0.209086352,-1.806001,-0.00664,-0.000369,0,3,981237,2.321,0,0,0,7.499995,0.007343,0.002167,-0.009227,-0.006858,0.001255,3,0,0,0,0,0,0
1.006837412,0.209086352,-1.797624,-0.002516,0.001464,0,3,981256,2.34,0,0,0,7.559994,0.00749,0.0022,-0.009318,-0.005024,0.000449,3,0,0,0,0,0,0
1.006837412,0.209086352,-1.79164,-0.003891,0.001769,0,3,981276,2.36,0,0,0,7.619994,0.007627,0.002209,-0.009379,-0.004817,0.000525,3,0,0,0,0,0,0
1.006837412,0.209086352,-1.800017,-0.004196,0.005282,0,3,981296,2.38,0,0,0,7.679994,0.007781,0.002252,-0.009404,-0.003813,0.001715,3,0,0,0,0,0,0
1.006837412,0.209086352,-1.814379,-0.006487,0.00406,0,3,981316,2.4,0,0,0,7.739994,0.007946,0.002309,-0.009466,-0.005432,0.000494,3,0,0,0,0,0,0
1.006837412,0.209086352,-1.807198,-0.005418,0.00406,0,3,981336,2.42,0,0,0,7.769994,0.008021,0.002322,-0.009517,-0.006633,0.001279,3,0,0,0,0,0,0
1.006837412,0.209086352,-1.811985,-0.003586,0.001769,0,3,981356,2.44,0,0,0,7.859993,0.008285,0.002425,-0.009651,-0.00539,0.000681,3,0,0,0,0,0,0
1.006837412,0.209086352,-1.825151,-0.005418,-0.000063,0,3,981376,2.46,0,0,0,7.919993,0.008446,0.002456,-0.009732,-0.006195,0.000036,3,0,0,0,0,0,0
1.006837412,0.209086352,-1.803608,-0.007403,0.001769,0,3,981396,2.48,0,0,0,7.979993,0.008602,0.002474,-0.009844,-0.007851,0.000606,3,0,0,0,0,0,0
1.006837412,0.209086352,-1.804805,-0.003433,0.005282,0,3,981416,2.5,0,0,0,8.039993,0.008767,0.002505,-0.009949,-0.005772,0.001662,3,0,0,0,0,0,0
1.006837412,0.209086352,-1.81797,-0.005876,0.000548,0,3,981436,2.52,0,0,0,8.099992,0.008942,0.002552,-0.010019,-0.006094,0.000182,3,0,0,0,0,0,0
1.006837412,0.209086352,-1.816773,-0.000531,0.000242,0,3,981456,2.54,0,0,0,8.159992,0.009102,0.002566,-0.010076,-0.003389,0.000117,3,0,0,0,0,0,0
1.006837412,0.209086352,-1.825151,-0.002822,-0.001285,0,3,981476,2.56,0,0,0,8.219992,0.009256,0.002567,-0.010119,-0.004072,-0.000396,3,0,0,0,0,0,0
1.006837412,0.209086352,-1.789246,-0.003433,-0.001743,0,3,981496,2.58,0,0,0,8.279992,0.009406,0.002559,-0.010159,-0.003309,0.000177,3,0,0,0,0,0,0
1.006837412,0.209086352,-1.796427,-0.000073,0.004671,0,3,981516,2.6,0,0,0,8.339992,0.009555,0.00255,-0.010218,-0.005681,-0.000948,3,0,0,0,0,0,0
1.006837412,0.209086352,-1.816773,-0.005571,0.002991,0,3,981536,2.62,0,0,0,8.399991,0.009712,0.00256,-0.010261,-0.005176,0.001041,3,0,0,0,0,0,0
1.006837412,0.209086352,-1.794033,-0.001753,-0.00098,0,3,981556,2.64,0,0,0,8.459991,0.009874,0.002573,-0.010332,-0.004386,-0.000345,3,0,0,0,0,0,0
1.006837412,0.209086352,-1.814379,-0.005876,-0.000521,0,3,981576,2.66,0,0,0,8.519991,0.010039,0.002596,-0.010436,-0.007156,-0.000026,3,0,0,0,0,0,0
1.006837412,0.209086352,-1.801214,-0.004502,0.001311,0,3,981596,2.68,0,0,0,8.579991,0.010188,0.002582,-0.010514,-0.005758,0.000343,3,0,0,0,0,0,0
1.006837412,0.209086352,-1.815576,-0.00664,0.002228,0,3,981616,2.7,0,0,0,8.639991,0.010355,0.002606,-0.010606,-0.007057,0.000734,3,0,0,0,0,0,0
1.006837412,0.209086352,-1.782065,-0.001295,0.001006,0,3,981637,2.721,0,0,0,8.69999,0.010529,0.00264,-0.010691,-0.005249,0.000787,3,0,0,0,0,0,0
1.006837412,0.209086352,-1.809592,-0.005571,0.002838,0,3,981656,2.74,0,0,0,8.75999,0.010703,0.002671,-0.010743,-0.005495,0.000898,3,0,0,0,0,0,0
1.006837412,0.209086352,-1.810789,-0.006487,0.004366,0,3,981676,2.76,0,0,0,8.81999,0.010883,0.00271,-0.01083,-0.006805,0.001385,3,0,0,0,0,0,0
1.006837412,0.209086352,-1.81797,-0.005265,-0.000521,0,3,981696,2.78,0,0,0,8.87999,0.011058,0.002732,-0.010901,-0.006015,-0.00021,3,0,0,0,0,0,0
1.006837412,0.209086352,-1.813182,-0.004196,0.00238,0,3,981716,2.8,0,0,0,8.939989,0.011219,0.002727,-0.010966,-0.005299,0.000722,3,0,0,0,0,0,0
1.006837412,0.209086352,-1.820363,-0.006793,-0.000827,0,3,981737,2.821,0,0,0,8.999989,0.011398,0.002755,-0.011027,-0.005515,-0.000669,3,0,0,0,0,0,0
1.006837412,0.209086352,-1.816773,-0.004044,0.002075,0,3,981756,2.84,0,0,0,9.059989,0.01155,0.00273,-0.011116,-0.005895,0.000596,3,0,0,0,0,0,0
1.006837412,0.209086352,-1.833528,-0.004655,0.002991,0,3,981776,2.86,0,0,0,9.119989,0.011727,0.002756,-0.011188,-0.005702,0.000949,3,0,0,0,0,0,0
1.006837412,0.209086352,-1.789246,-0.009083,0.000089,0,3,981796,2.88,0,0,0,9.179988,0.011907,0.002785,-0.011261,-0.007826,0.000044,3,0,0,0,0,0,0
1.006837412,0.209086352,-1.808395,-0.003738,-0.001285,0,3,981816,2.9,0,0,0,9.239988,0.01207,0.002775,-0.011319,-0.003349,0.001187,3,0,0,0,0,0,0
1.006837412,0.209086352,-1.819166,-0.006334,0.00238,0,3,981837,2.921,0,0,0,9.299988,0.012249,0.002799,-0.011366,-0.004399,0.000463,3,0,0,0,0,0,0
1.006837412,0.209086352,-1.807198,-0.000684,0.002991,0,3,981856,2.94,0,0,0,9.359988,0.012433,0.002831,-0.011425,-0.003597,0.000989,3,0,0,0,0,0,0
1.006837412,0.209086352,-1.828741,-0.004655,-0.002659,0,3,981876,2.96,0,0,0,9.419987,0.01261,0.002843,-0.011488,-0.005978,0.000204,3,0,0,0,0,0,0
1.006837412,0.209086352,-1.823954,-0.005265,-0.003423,0,3,981896,2.98,0,0,0,9.479987,0.012773,0.002828,-0.01157,-0.006442,0.000731,3,0,0,0,0,0,0
1.006837412,0.209086352,-1.810789,-0.008167,-0.000216,0,3,981916,3,0,0,0,9.539987,0.01294,0.002822,-0.011676,-0.008402,-0.000165,3,0,0,0,0,0,0
1.006837412,0.209086352,-1.822757,-0.004196,0.003144,0,3,981936,3.02,0,0,0,9.569987,0.013023,0.002818,-0.011709,-0.0055,-0.000031,3,0,0,0,0,0,0
1.006837412,0.209086352,-1.803608,-0.001753,0.002686,0,3,981956,3.04,0,0,0,9.659986,0.013302,0.002869,-0.011795,-0.00397,0.000925,3,0,0,0,0,0,0
1.006837412,0.209086352,-1.813182,-0.006029,0.000853,0,3,981976,3.06,0,0,0,9.719986,0.01349,0.002899,-0.01187,-0.005914,0.000103,3,0,0,0,0,0,0
1.006837412,0.209086352,-1.809592,-0.00496,-0.004339,0,3,981996,3.08,0,0,0,9.779986,0.013669,0.002909,-0.011961,-0.006564,0.001257,3,0,0,0,0,0,0
1.006837412,0.209086352,-1.808395,0.000996,-0.000369,0,3,982016,3.1,0,0,0,9.839985,0.013846,0.002911,-0.012008,-0.002739,-0.000229,3,0,0,0,0,0,0
1.006837365,0.209086398,-1.81797,-0.003433,0.001311,0,3,982036,3.12,24,24,24,9.869985,0.01393,0.002905,-0.012044,-0.00584,-0.000228,3,0,0,0,0,0,0
1.006837365,0.209086398,-1.79164,-0.002211,0.001617,0,3,982056,3.14,24,24,24,9.959985,0.014199,0.00292,-0.012096,-0.001791,0.000724,3,0,0,0,0,0,0
1.006837365,0.209086398,-1.820363,-0.005265,0.001006,0,3,982076,3.16,24,24,24,10.019985,0.014391,0.002953,-0.012133,-0.005235,0.000363,3,0,0,0,0,0,0
1.006837365,0.209086398,-1.815576,-0.007403,-0.001896,0,3,982096,3.18,24,24,24,10.079984,0.014584,0.002985,-0.012207,-0.007321,-0.000483,3,0,0,0,0,0,0
1.006837365,0.209086398,-1.809592,-0.008167,0.001464,0,3,982116,3.2,24,24,24,10.139984,0.014754,0.002967,-0.012253,-0.004091,0.000009,3,0,0,0,0,0,0
1.006837365,0.209086398,-1.81797,-0.003127,0.002075,0,3,982136,3.22,24,24,24,10.169984,0.014843,0.002967,-0.012304,-0.007435,0.000442,3,0,0,0,0,0,0
1.006837365,0.209086398,-1.801214,-0.001906,0.001006,0,3,982156,3.24,24,24,24,10.259984,0.015135,0.003014,-0.012371,-0.002884,-0.000079,3,0,0,0,0,0,0
1.006837365,0.209086398,-1.833528,-0.008167,0.004824,0,3,982176,3.26,24,24,24,10.319983,0.015318,0.00302,-0.01238,-0.002397,0.000292,3,0,0,0,0,0,0
1.006837365,0.209086398,-1.820363,-0.005724,0.001617,0,3,982196,3.28,24,24,24,10.379983,0.015523,0.003065,-0.012478,-0.007675,-0.000692,3,0,0,0,0,0,0
1.006837365,0.209086398,-1.816773,-0.001906,0.003144,0,3,982216,3.3,24,24,24,10.439983,0.015702,0.003058,-0.012553,-0.004747,0.000998,3,0,0,0,0,0,0
1.006837365,0.209086398,-1.839512,-0.001906,-0.001743,0,3,982237,3.321,24,24,24,10.499982,0.015886,0.003057,-0.012582,-0.003105,0.000565,3,0,0,0,0,0,0
1.006837365,0.209086398,-1.82156,-0.006334,-0.002354,0,3,982256,3.34,24,24,24,10.559982,0.016071,0.003059,-0.012591,-0.002225,0.000535,3,0,0,0,0,0,0
1.006837365,0.209086398,-1.810789,-0.006487,0.002533,0,3,982276,3.36,24,24,24,10.619982,0.016253,0.003056,-0.012671,-0.006987,0.000697,3,0,0,0,0,0,0
1.006837365,0.209086398,-1.807198,-0.006487,0.001006,0,3,982296,3.38,24,24,24,10.679981,0.016454,0.00309,-0.012739,-0.004977,0.000695,3,0,0,0,0,0,0
1.006837365,0.209086398,-1.819166,-0.001295,0.001006,0,3,982316,3.4,24,24,24,10.739981,0.016654,0.003117,-0.012804,-0.004314,0.000348,3,0,0,0,0,0,0
1.006837365,0.209086398,-1.804805,-0.006029,0.000395,0,3,982336,3.42,24,24,24,10.769981,0.016752,0.003126,-0.012834,-0.005462,-0.000581,3,0,0,0,0,0,0
1.006837365,0.209086398,-1.814379,-0.005265,0.001006,0,3,982356,3.44,24,24,24,10.859981,0.017027,0.003116,-0.012962,-0.006289,-0.00074,3,0,0,0,0,0,0
1.006837365,0.209086398,-1.810789,-0.007403,0.002991,0,3,982376,3.46,24,24,24,10.91998,0.017207,0.003103,-0.013045,-0.006595,0.000699,3,0,0,0,0,0,0
1.006837365,0.209086398,-1.809592,-0.005876,-0.001285,0,3,982396,3.48,24,24,24,10.97998,0.017415,0.003146,-0.013133,-0.005697,-0.000557,3,0,0,0,0,0,0
1.006837365,0.209086398,-1.810789,-0.001753,0.00574,0,3,982416,3.5,24,24,24,11.03998,0.017591,0.003121,-0.013185,-0.003315,0.000955,3,0,0,0,0,0,0
1.006837365,0.209086398,-1.790443,-0.004502,-0.002659,0,3,982437,3.521,24,24,24,11.099979,0.017814,0.003192,-0.013215,-0.004605,0.000037,3,0,0,0,0,0,0
1.006837365,0.209086398,-1.820363,-0.000837,0.001158,0,3,982456,3.54,24,24,24,11.159979,0.017996,0.003173,-0.013256,-0.003507,0.000271,3,0,0,0,0,0,0
1.006837365,0.209086398,-1.76531,-0.005113,0.001464,0,3,982476,3.56,24,24,24,11.219979,0.018192,0.003182,-0.013327,-0.006259,0.000455,3,0,0,0,0,0,0
1.006837365,0.209086398,-1.825151,-0.007862,0.001922,0,3,982496,3.58,24,24,24,11.279978,0.018404,0.003225,-0.013423,-0.008192,0.000705,3,0,0,0,0,0,0
1.006837365,0.209086398,-1.832331,-0.003433,-0.000521,0,3,982516,3.6,24,24,24,11.339978,0.018606,0.003242,-0.013504,-0.005905,-0.000157,3,0,0,0,0,0,0
1.006837365,0.209086398,-1.840709,-0.004502,0.001311,0,3,982537,3.621,24,24,24,11.399978,0.018795,0.003231,-0.013576,-0.005223,0.000326,3,0,0,0,0,0,0
1.006837365,0.209086398,-1.782065,-0.000531,0.002686,0,3,982556,3.64,24,24,24,11.459977,0.018999,0.003251,-0.013618,-0.003411,0.000861,3,0,0,0,0,0,0
1.006837365,0.209086398,-1.794033,-0.000531,-0.000674,0,3,982576,3.66,24,24,24,11.519977,0.019216,0.003294,-0.013633,-0.002809,-0.000115,3,0,0,0,0,0,0
1.006837365,0.209086398,-1.785655,-0.004196,0.001617,0,3,982596,3.68,24,24,24,11.579977,0.019424,0.003314,-0.013689,-0.005514,0.000584,3,0,0,0,0,0,0
1.006837365,0.209086398,-1.79882,-0.007251,0.001464,0,3,982616,3.7,24,24,24,11.639976,0.019621,0.00331,-0.013728,-0.006396,0.000364,3,0,0,0,0,0,0
1.006837365,0.209086398,-1.809592,-0.009389,-0.00098,0,3,982637,3.721,24,24,24,11.699976,0.019821,0.003311,-0.013762,-0.003205,-0.000184,3,0,0,0,0,0,0
1.006837365,0.209086398,-1.808395,-0.005724,-0.002049,0,3,982656,3.74,24,24,24,11.759976,0.020013,0.003298,-0.013866,-0.007669,-0.000649,3,0,0,0,0,0,0
1.006837365,0.209086398,-1.803608,-0.001753,0.002686,0,3,982676,3.76,24,24,24,11.819975,0.020189,0.003256,-0.013915,-0.004172,0.00071,3,0,0,0,0,0,0
1.006837365,0.209086398,-1.833528,-0.002975,0.001617,0,3,982696,3.78,24,24,24,11.879975,0.020395,0.003276,-0.013936,-0.004023,0.000496,3,0,0,0,0,0,0
1.006837365,0.209086398,-1.79882,-0.000378,0.001617,0,3,982716,3.8,24,24,24,11.939975,0.020593,0.003279,-0.013953,-0.002744,0.000452,3,0,0,0,0,0,0
1.006837365,0.209086398,-1.800017,-0.004807,0.001311,0,3,982736,3.82,24,24,24,11.969974,0.020697,0.00329,-0.013979,-0.005419,-0.001217,3,0,0,0,0,0,0
1.006837365,0.209086398,-1.831135,-0.002669,0.000853,0,3,982756,3.84,24,24,24,12.059974,0.020985,0.003277,-0.014073,-0.005023,0.000306,3,0,0,0,0,0,0
1.006837365,0.209086398,-1.807198,-0.004349,0.001464,0,3,982776,3.86,24,24,24,12.119974,0.021196,0.003304,-0.014151,-0.006246,0.000524,3,0,0,0,0,0,0
1.006837365,0.209086398,-1.771294,-0.000378,0.001006,0,3,982796,3.88,24,24,24,12.179973,0.0214,0.003315,-0.014194,-0.003767,0.000022,3,0,0,0,0,0,0
1.006837365,0.209086398,-1.810789,-0.005418,-0.001132,0,3,982816,3.9,24,24,24,12.239973,0.021603,0.003324,-0.014222,-0.005416,0.000659,3,0,0,0,0,0,0
1.006837365,0.209086398,-1.79164,-0.005876,0.00406,0,3,982837,3.921,24,24,24,12.299973,0.021808,0.003334,-0.014305,-0.006968,0.0012,3,0,0,0,0,0,0
1.006837365,0.209086398,-1.809592,-0.005113,0.000548,0,3,982856,3.94,24,24,24,12.359972,0.022041,0.003399,-0.014369,-0.004347,0.00059,3,0,0,0,0,0,0
1.006837365,0.209086398,-1.814379,-0.004807,0.000548,0,3,982876,3.96,24,24,24,12.419972,0.022256,0.00342,-0.014452,-0.007902,-0.000871,3,0,0,0,0,0,0
1.006837365,0.209086398,-1.809592,-0.000684,0.004366,0,3,982896,3.98,24,24,24,12.479971,0.022451,0.0034,-0.014551,-0.008382,-0.000056,3,0,0,0,0,0,0
1.006837365,0.209086398,-1.820363,-0.003738,0.001311,0,3,982916,4,24,24,24,12.539971,0.022671,0.003433,-0.014576,-0.003291,0.000031,3,0,0,0,0,0,0
1.006837365,0.209086398,-1.811985,-0.006945,0.002991,0,3,982937,4.021,24,24,24,12.599971,0.022882,0.003444,-0.014638,-0.006993,0.000946,3,0,0,0,0,0,0
1.006837365,0.209086398,-1.814379,-0.005418,0.002533,0,3,982956,4.04,24,24,24,12.65997,0.023115,0.003494,-0.014739,-0.007411,0.000874,3,0,0,0,0,0,0
1.006837365,0.209086398,-1.828741,-0.005418,0.001922,0,3,982976,4.06,24,24,24,12.71997,0.023336,0.003516,-0.014836,-0.008086,-0.00048,3,0,0,0,0,0,0
1.006837365,0.209086398,-1.789246,-0.006182,0.001769,0,3,982996,4.08,24,24,24,12.779969,0.023547,0.003517,-0.014947,-0.009014,0.001191,3,0,0,0,0,0,0
1.006837365,0.209086398,-1.809592,-0.004655,-0.000674,0,3,983016,4.1,24,24,24,12.839969,0.023783,0.003565,-0.015042,-0.006823,-0.000683,3,0,0,0,0,0,0
1.006837365,0.209086398,-1.810789,-0.006487,0.002075,0,3,983037,4.121,24,24,24,12.899969,0.023984,0.003541,-0.015126,-0.007491,0.0006,3,0,0,0,0,0,0
1.006837365,0.209086398,-1.785655,-0.001753,0.003297,0,3,983056,4.14,24,24,24,12.959968,0.02422,0.003588,-0.015185,-0.005925,0.000806,3,0,0,0,0,0,0
1.006837365,0.209086398,-1.81797,-0.004655,-0.001285,0,3,983076,4.16,24,24,24,13.019968,0.024461,0.003637,-0.01523,-0.005766,-0.000272,3,0,0,0,0,0,0
1.006837365,0.209086398,-1.800017,-0.002058,0.002533,0,3,983096,4.18,24,24,24,13.079967,0.024685,0.003649,-0.015281,-0.004592,0.000847,3,0,0,0,0,0,0
1.006837365,0.209086398,-1.813182,-0.002975,0.001158,0,3,983116,4.2,24,24,24,13.139967,0.024908,0.003657,-0.015338,-0.004393,0.001038,3,0,0,0,0,0,0
1.006837365,0.209086398,-1.81797,-0.002516,0.003602,0,3,983137,4.221,24,24,24,13.199966,0.025148,0.003696,-0.015369,-0.004034,0.00114,3,0,0,0,0,0,0
1.006837365,0.209086398,-1.79882,-0.001906,0.0007,0,3,983156,4.24,24,24,24,13.259966,0.0254,0.003756,-0.015437,-0.008245,0.000476,3,0,0,0,0,0,0
1.006837365,0.209086398,-1.79523,-0.007098,0.002228,0,3,983176,4.26,24,24,24,13.319965,0.025635,0.003775,-0.015514,-0.00789,0.000655,3,0,0,0,0,0,0
1.006837365,0.209086398,-1.79164,-0.00832,0.002533,0,3,983196,4.28,24,24,24,13.379965,0.02588,0.003811,-0.015582,-0.003949,0.000989,3,0,0,0,0,0,0
1.006837365,0.209086398,-1.79523,0.000843,0.002838,0,3,983216,4.3,24,24,24,13.439964,0.026133,0.003859,-0.015638,-0.0035,0.000956,3,0,0,0,0,0,0
1.006837365,0.209086398,-1.808395,-0.007098,0.002838,0,3,983237,4.321,24,24,24,13.499964,0.026389,0.003906,-0.015728,-0.007309,0.000444,3,0,0,0,0,0,0
1.006837365,0.209086398,-1.806001,-0.000378,0.004824,0,3,983256,4.34,24,24,24,13.559963,0.026641,0.003941,-0.015798,-0.004372,0.001559,3,0,0,0,0,0,0
1.006837365,0.209086398,-1.802411,-0.006029,0.001006,0,3,983276,4.36,24,24,24,13.619963,0.026905,0.003993,-0.015887,-0.007596,0.000356,3,0,0,0,0,0,0
1.006837365,0.209086398,-1.796427,-0.005571,0.005282,0,3,983296,4.38,24,24,24,13.679962,0.02715,0.004004,-0.015944,-0.004417,0.000086,3,0,0,0,0,0,0
1.006837365,0.209086398,-1.815576,0.000843,0.001769,0,3,983316,4.4,24,24,24,13.739962,0.027412,0.004047,-0.015993,-0.004626,0.000431,3,0,0,0,0,0,0
1.006837365,0.209086398,-1.796427,-0.00328,0.006351,0,3,983337,4.421,24,24,24,13.799961,0.027668,0.004073,-0.016004,-0.004568,0.000228,3,0,0,0,0,0,0
1.006837365,0.209086398,-1.808395,-0.004044,-0.002354,0,3,983356,4.44,24,24,24,13.859961,0.02794,0.004129,-0.016049,-0.005673,-0.000504,3,0,0,0,0,0,0
1.006837365,0.209086398,-1.803608,-0.001295,-0.000521,0,3,983376,4.46,24,24,24,13.91996,0.028198,0.004151,-0.016118,-0.00504,-0.000009,3,0,0,0,0,0,0
1.006837365,0.209086398,-1.808395,-0.00496,-0.004187,0,3,983396,4.48,24,24,24,13.979959,0.028449,0.004154,-0.016191,-0.006934,-0.001249,3,0,0,0,0,0,0
1.006837365,0.209086398,-1.788049,0.000538,-0.000216,0,3,983416,4.5,24,24,24,14.039959,0.028694,0.004147,-0.016213,-0.002906,0.000041,3,0,0,0,0,0,0
1.006837365,0.209086398,-1.828741,-0.002058,0.004366,0,3,983437,4.521,24,24,24,14.099958,0.028955,0.004173,-0.01626,-0.005238,0.001606,3,0,0,0,0,0,0
1.006837365,0.209086398,-1.81797,-0.006945,0.002228,0,3,983456,4.54,24,24,24,14.159958,0.029246,0.004252,-0.016301,-0.005486,0.001246,3,0,0,0,0,0,0
1.006837365,0.209086398,-1.809592,-0.003127,-0.000369,0,3,983476,4.56,24,24,24,14.219957,0.029529,0.004305,-0.016397,-0.008063,-0.000116,3,0,0,0,0,0,0
1.006837365,0.209086398,-1.801214,-0.006487,0.002533,0,3,983496,4.58,24,24,24,14.279957,0.029784,0.004299,-0.016431,-0.003463,-0.000487,3,0,0,0,0,0,0
1.006837365,0.209086398,-1.792836,-0.005876,-0.000063,0,3,983516,4.6,24,24,24,14.339956,0.030044,0.004305,-0.016507,-0.007306,0.000058,3,0,0,0,0,0,0
1.006837365,0.209086398,-1.784459,-0.004807,0.001922,0,3,983536,4.62,24,24,24,14.369956,0.030174,0.004306,-0.016539,-0.006232,0.000453,3,0,0,0,0,0,0
1.006837365,0.209086398,-1.813182,-0.005724,0.003602,0,3,983556,4.64,24,24,24,14.459955,0.030585,0.004351,-0.016651,-0.007154,0.001159,3,0,0,0,0,0,0
1.006837365,0.209086398,-1.813182,-0.005724,0.003297,0,3,983576,4.66,24,24,24,14.519954,0.030879,0.004416,-0.016718,-0.006191,0.000173,3,0,0,0,0,0,0
1.006837365,0.209086398,-1.815576,-0.003127,0.001158,0,3,983596,4.68,24,24,24,14.579953,0.031159,0.004446,-0.016811,-0.008422,0.000827,3,0,0,0,0,0,0
1.006837365,0.209086398,-1.801214,-0.004349,0.003907,0,3,983616,4.7,24,24,24,14.639953,0.031443,0.004479,-0.016893,-0.007972,0.000721,3,0,0,0,0,0,0
1.006837365,0.209086398,-1.79164,-0.002211,0.003755,0,3,983637,4.721,24,24,24,14.699952,0.031738,0.00453,-0.01696,-0.005959,0.000717,3,0,0,0,0,0,0
1.006837365,0.209086398,-1.814379,-0.002058,0.002991,0,3,983656,4.74,24,24,24,14.759951,0.032035,0.00458,-0.017027,-0.008189,0.000016,3,0,0,0,0,0,0
1.006837365,0.209086398,-1.79882,-0.002211,0.000089,0,3,983676,4.76,24,24,24,14.819951,0.032321,0.004603,-0.017095,-0.007443,0.001185,3,0,0,0,0,0,0
1.006837365,0.209086398,-1.802411,-0.003738,0.000853,0,3,983696,4.78,24,24,24,14.87995,0.032616,0.004638,-0.017144,-0.005625,0.000969,3,0,0,0,0,0,0
1.006837365,0.209086398,-1.823954,-0.001753,0.002686,0,3,983716,4.8,24,24,24,14.939949,0.032912,0.004672,-0.017182,-0.004477,-0.000253,3,0,0,0,0,0,0
1.006837365,0.209086398,-1.802411,-0.0016,0.0007,0,3,983737,4.821,24,24,24,14.999948,0.033199,0.004686,-0.017236,-0.007886,0.000386,3,0,0,0,0,0,0
1.006837365,0.209086398,-1.804805,-0.005876,0.002228,0,3,983756,4.84,24,24,24,15.059948,0.033488,0.004703,-0.017284,-0.006022,-0.000497,3,0,0,0,0,0,0
1.006837365,0.209086398,-1.806001,-0.005876,-0.001438,0,3,983776,4.86,24,24,24,15.119947,0.033772,0.004706,-0.017335,-0.004508,0.000006,3,0,0,0,0,0,0
1.006837365,0.209086398,-1.825151,-0.003127,0.003297,0,3,983796,4.88,24,24,24,15.179946,0.034049,0.004695,-0.017413,-0.007658,0.000122,3,0,0,0,0,0,0
1.006837365,0.209086398,-1.801214,-0.001447,0.00238,0,3,983816,4.9,24,24,24,15.239946,0.034345,0.004724,-0.017454,-0.004406,0.00083,3,0,0,0,0,0,0
1.006837365,0.209086398,-1.814379,-0.004196,0.001922,0,3,983837,4.921,24,24,24,15.299945,0.034637,0.00474,-0.017513,-0.006162,0.000562,3,0,0,0,0,0,0
1.006837365,0.209086398,-1.79164,-0.004502,0.002533,0,3,983856,4.94,24,24,24,15.359944,0.034937,0.004771,-0.017562,-0.005189,0.000283,3,0,0,0,0,0,0
1.006837365,0.209086398,-1.79523,-0.005265,0.000395,0,3,983876,4.96,24,24,24,15.419943,0.035238,0.004799,-0.017596,-0.004124,-0.000714,3,0,0,0,0,0,0
1.006837365,0.209086398,-1.816773,-0.003738,0.000395,0,3,983896,4.98,24,24,24,15.479943,0.035516,0.004782,-0.017676,-0.008451,0.000586,3,0,0,0,0,0,0
1.006837365,0.209086398,-1.81797,-0.000378,0.004518,0,3,983916,5,24,24,24,15.539942,0.035814,0.004802,-0.017719,-0.003943,0.00139,3,0,0,0,0,0,0
1.006837365,0.209086398,-1.788049,0.000843,-0.001743,0,3,983937,5.021,24,24,24,15.599941,0.036143,0.004882,-0.017709,-0.002197,-0.000338,3,0,0,0,0,0,0
1.006837365,0.209086398,-1.810789,-0.004655,0.003755,0,3,983956,5.04,24,24,24,15.659941,0.036424,0.004859,-0.017692,-0.003231,0.001308,3,0,0,0,0,0,0
1.006837365,0.209086398,-1.806001,-0.004349,-0.000674,0,3,983976,5.06,24,24,24,15.71994,0.03675,0.004926,-0.017741,-0.006113,-0.000067,3,0,0,0,0,0,0
1.006837365,0.209086398,-1.815576,-0.002822,0.001158,0,3,983996,5.08,24,24,24,15.779939,0.037052,0.004939,-0.01782,-0.007654,0.001059,3,0,0,0,0,0,0
1.006837365,0.209086398,-1.786852,-0.005418,-0.001743,0,3,984016,5.1,24,24,24,15.839938,0.037368,0.004978,-0.0179,-0.008595,0.000446,3,0,0,0,0,0,0
1.006837365,0.209086398,-1.823954,-0.000226,0.002838,0,3,984037,5.121,24,24,24,15.899937,0.037667,0.004977,-0.017957,-0.004343,0.000814,3,0,0,0,0,0,0
1.006837365,0.209086398,-1.823954,-0.005418,0.0007,0,3,984056,5.14,24,24,24,15.959936,0.037989,0.005023,-0.01798,-0.005837,0.000312,3,0,0,0,0,0,0
1.006837365,0.209086398,-1.81797,-0.002975,0.001006,0,3,984076,5.16,24,24,24,16.019936,0.038303,0.005049,-0.018039,-0.005741,0.000383,3,0,0,0,0,0,0
1.006837365,0.209086398,-1.801214,-0.002058,-0.001743,0,3,984096,5.18,24,24,24,16.079935,0.038629,0.005094,-0.018117,-0.005979,-0.000377,3,0,0,0,0,0,0
1.006837365,0.209086398,-1.79164,-0.003127,-0.000369,0,3,984116,5.2,24,24,24,16.139934,0.038922,0.005069,-0.018153,-0.005232,-0.000172,3,0,0,0,0,0,0
1.006837365,0.209086398,-1.831135,-0.007251,0.001158,0,3,984137,5.221,24,24,24,16.199933,0.039214,0.005045,-0.018192,-0.007112,0.000274,3,0,0,0,0,0,0
1.006837365,0.209086398,-1.807198,0.001454,0.000548,0,3,984156,5.24,24,24,24,16.259933,0.03953,0.005071,-0.018248,-0.003732,0.000248,3,0,0,0,0,0,0
1.006837365,0.209086398,-1.81797,-0.006029,0.00238,0,3,984176,5.26,24,24,24,16.319932,0.039821,0.005045,-0.018343,-0.008051,0.000592,3,0,0,0,0,0,0
1.006837365,0.209086398,-1.820363,-0.003891,-0.000369,0,3,984196,5.28,24,24,24,16.379931,0.040123,0.005043,-0.018424,-0.006853,-0.000179,3,0,0,0,0,0,0
1.006837365,0.209086398,-1.828741,-0.003127,0.000853,0,3,984216,5.3,24,24,24,16.43993,0.040426,0.005044,-0.018478,-0.005757,0.000288,3,0,0,0,0,0,0
1.006837365,0.209086398,-1.802411,-0.006945,-0.000674,0,3,984236,5.32,24,24,24,16.499929,0.040741,0.005067,-0.018547,-0.007941,-0.000138,3,0,0,0,0,0,0
1.006837365,0.209086398,-1.808395,-0.002822,-0.002354,0,3,984256,5.34,24,24,24,16.559929,0.041056,0.00509,-0.01858,-0.005166,-0.000599,3,0,0,0,0,0,0
1.006837365,0.209086398,-1.796427,-0.005571,0.003144,0,3,984276,5.36,24,24,24,16.619928,0.041381,0.005131,-0.018606,-0.005988,0.00118,3,0,0,0,0,0,0
1.006837365,0.209086398,-1.801214,-0.008625,0.0007,0,3,984296,5.38,24,24,24,16.679927,0.041709,0.005169,-0.018682,-0.008848,0.000243,3,0,0,0,0,0,0
1.006837365,0.209086398,-1.82156,-0.004044,0.002228,0,3,984316,5.4,24,24,24,16.739926,0.042023,0.005177,-0.018766,-0.006955,0.000684,3,0,0,0,0,0,0
1.006837365,0.209086398,-1.809592,-0.005265,-0.000369,0,3,984336,5.42,24,24,24,16.799925,0.042353,0.005215,-0.018851,-0.007804,0.000391,3,0,0,0,0,0,0
1.006837365,0.209086398,-1.79523,-0.006334,-0.00098,0,3,984356,5.44,24,24,24,16.859924,0.042671,0.005223,-0.018938,-0.008228,-0.0003,3,0,0,0,0,0,0
1.006837365,0.209086398,-1.809592,-0.003738,-0.000063,0,3,984376,5.46,24,24,24,16.919924,0.042971,0.005198,-0.018995,-0.006224,-0.000087,3,0,0,0,0,0,0
1.006837365,0.209086398,-1.811985,-0.005113,0.001311,0,3,984396,5.48,24,24,24,16.979923,0.043292,0.005216,-0.019047,-0.004763,-0.00085,3,0,0,0,0,0,0
1.006837365,0.209086398,-1.803608,-0.002058,-0.000216,0,3,984416,5.5,24,24,24,17.039922,0.043597,0.005202,-0.019088,-0.005058,-0.000028,3,0,0,0,0,0,0
1.006837362,0.209086485,-1.823954,-0.001906,0.003907,0,3,984436,5.52,48,48,48,17.099921,0.043919,0.005221,-0.019098,-0.003935,0.001264,3,0,0,0,0,0,0
1.006837362,0.209086485,-1.79882,-0.003433,-0.000216,0,3,984456,5.54,48,48,48,17.15992,0.04424,0.005235,-0.019115,-0.004826,-0.000321,3,0,0,0,0,0,0
1.006837362,0.209086485,-1.807198,-0.004349,0.004976,0,3,984476,5.56,48,48,48,17.219919,0.044549,0.005225,-0.019157,-0.005888,0.001496,3,0,0,0,0,0,0
1.006837362,0.209086485,-1.797624,-0.00328,-0.00098,0,3,984496,5.58,48,48,48,17.279918,0.044894,0.005287,-0.019198,-0.005637,-0.000195,3,0,0,0,0,0,0
1.006837362,0.209086485,-1.809592,-0.002822,0.001617,0,3,984516,5.6,48,48,48,17.339918,0.045199,0.005262,-0.019251,-0.006097,0.001656,3,0,0,0,0,0,0
1.006837362,0.209086485,-1.79523,-0.002211,0.006962,0,3,984536,5.62,48,48,48,17.399917,0.045546,0.005322,-0.019284,-0.004615,0.002177,3,0,0,0,0,0,0
1.006837362,0.209086485,-1.794033,-0.004349,0.002838,0,3,984556,5.64,48,48,48,17.459916,0.045898,0.005386,-0.019354,-0.006758,0.000571,3,0,0,0,0,0,0
1.006837362,0.209086485,-1.81797,-0.003738,0.002686,0,3,984576,5.66,48,48,48,17.519915,0.046241,0.005424,-0.019411,-0.006174,0.000912,3,0,0,0,0,0,0
1.006837362,0.209086485,-1.807198,-0.002211,0.000395,0,3,984596,5.68,48,48,48,17.579914,0.046607,0.005504,-0.019491,-0.006216,0.000357,3,0,0,0,0,0,0
1.006837362,0.209086485,-1.79523,-0.004349,0.003907,0,3,984616,5.7,48,48,48,17.639913,0.046947,0.005522,-0.019541,-0.006033,0.001174,3,0,0,0,0,0,0
1.006837362,0.209086485,-1.807198,-0.001447,0.002991,0,3,984636,5.72,48,48,48,17.699911,0.047311,0.005586,-0.019581,-0.004683,0.001046,3,0,0,0,0,0,0
1.006837362,0.209086485,-1.771294,-0.000226,0.0007,0,3,984656,5.74,48,48,48,17.75991,0.047675,0.005643,-0.019606,-0.003978,0.001168,3,0,0,0,0,0,0
1.006837362,0.209086485,-1.82156,-0.005113,0.005587,0,3,984676,5.76,48,48,48,17.819909,0.048033,0.005682,-0.01963,-0.006616,0.000201,3,0,0,0,0,0,0
1.006837362,0.209086485,-1.822757,-0.003891,0.000853,0,3,984696,5.78,48,48,48,17.879908,0.048399,0.005731,-0.019685,-0.005841,-0.000019,3,0,0,0,0,0,0
1.006837362,0.209086485,-1.825151,-0.001906,0.000853,0,3,984716,5.8,48,48,48,17.939907,0.048746,0.005737,-0.01974,-0.00669,0.000841,3,0,0,0,0,0,0
1.006837362,0.209086485,-1.831135,-0.005571,-0.000369,0,3,984736,5.82,48,48,48,17.999906,0.049106,0.005768,-0.019787,-0.006883,-0.000072,3,0,0,0,0,0,0
1.006837362,0.209086485,-1.789246,-0.007098,0.001158,0,3,984756,5.84,48,48,48,18.059905,0.049462,0.005789,-0.019849,-0.007958,0.000446,3,0,0,0,0,0,0
1.006837362,0.209086485,-1.810789,-0.006334,0.003449,0,3,984776,5.86,48,48,48,18.119904,0.049812,0.005793,-0.019897,-0.007117,0.001013,3,0,0,0,0,0,0
1.006837362,0.209086485,-1.808395,-0.003127,-0.000216,0,3,984796,5.88,48,48,48,18.179903,0.050166,0.005805,-0.019981,-0.006841,-0.000117,3,0,0,0,0,0,0
1.006837362,0.209086485,-1.797624,-0.005113,0.003907,0,3,984816,5.9,48,48,48,18.239902,0.050509,0.005793,-0.020045,-0.007003,0.001147,3,0,0,0,0,0,0
1.006837362,0.209086485,-1.801214,-0.002058,0.002838,0,3,984856,5.94,48,48,48,18.299901,0.050884,0.005848,-0.020073,-0.004711,0.000965,3,0,0,0,0,0,0
1.006837362,0.209086485,-1.79523,-0.004349,0.002838,0,3,984896,5.98,48,48,48,18.389899,0.051413,0.00585,-0.020163,-0.006712,0.000807,3,0,0,0,0,0,0
1.006837362,0.209086485,-1.810789,-0.005724,0.001464,0,3,984916,6,48,48,48,18.449898,0.051788,0.005897,-0.020238,-0.007716,0.000554,3,0,0,0,0,0,0
1.006837362,0.209086485,-1.810789,-0.001753,-0.000063,0,3,984937,6.021,48,48,48,18.509897,0.052145,0.005903,-0.020273,-0.007346,-0.000329,3,0,0,0,0,0,0
1.006837362,0.209086485,-1.823954,-0.002975,-0.001438,0,3,984956,6.04,48,48,48,18.569896,0.052494,0.005893,-0.020303,-0.00539,-0.000435,3,0,0,0,0,0,0
1.006837362,0.209086485,-1.79164,-0.005724,0.000089,0,3,984976,6.06,48,48,48,18.629895,0.052856,0.005912,-0.020343,-0.006834,0.000148,3,0,0,0,0,0,0
1.006837362,0.209086485,-1.785655,-0.010152,0.002686,0,3,984996,6.08,48,48,48,18.689894,0.053216,0.005921,-0.020438,-0.010261,0.000836,3,0,0,0,0,0,0
1.006837362,0.209086485,-1.800017,-0.006334,-0.001132,0,3,985016,6.1,48,48,48,18.749893,0.053606,0.00599,-0.020497,-0.007714,-0.000148,3,0,0,0,0,0,0
1.006837362,0.209086485,-1.833528,-0.002822,0.002686,0,3,985037,6.121,48,48,48,18.809891,0.053978,0.006016,-0.020553,-0.007356,0.000245,3,0,0,0,0,0,0
1.006837362,0.209086485,-1.809592,-0.005113,0.003144,0,3,985056,6.14,48,48,48,18.86989,0.054354,0.006044,-0.020606,-0.006838,0.001041,3,0,0,0,0,0,0
1.006837362,0.209086485,-1.833528,-0.004196,0.002533,0,3,985076,6.16,48,48,48,18.929889,0.054731,0.006073,-0.02069,-0.007322,0.00078,3,0,0,0,0,0,0
1.006837362,0.209086485,-1.806001,-0.006334,0.0007,0,3,985096,6.18,48,48,48,18.989888,0.055114,0.006109,-0.020769,-0.008223,0.00028,3,0,0,0,0,0,0
1.006837362,0.209086485,-1.804805,-0.001753,0.004366,0,3,985116,6.2,48,48,48,19.049887,0.055493,0.006134,-0.020831,-0.005578,0.001394,3,0,0,0,0,0,0
1.006837362,0.209086485,-1.808395,-0.003891,0.000548,0,3,985136,6.22,48,48,48,19.109885,0.055904,0.006218,-0.02088,-0.006339,0.000367,3,0,0,0,0,0,0
1.006837362,0.209086485,-1.809592,-0.002516,0.00406,0,3,985156,6.24,48,48,48,19.169884,0.056297,0.006257,-0.020907,-0.004979,0.001349,3,0,0,0,0,0,0
1.006837362,0.209086485,-1.804805,-0.002822,0.002686,0,3,985176,6.26,48,48,48,19.229883,0.056701,0.006314,-0.020959,-0.005851,0.000907,3,0,0,0,0,0,0
1.006837362,0.209086485,-1.794033,-0.005876,0.0007,0,3,985196,6.28,48,48,48,19.289881,0.057101,0.006353,-0.021033,-0.007936,0.000281,3,0,0,0,0,0,0
1.006837362,0.209086485,-1.81797,-0.002975,0.004671,0,3,985216,6.3,48,48,48,19.34988,0.05748,0.006349,-0.021098,-0.006214,0.00137,3,0,0,0,0,0,0
1.006837362,0.209086485,-1.806001,-0.006334,0.001922,0,3,985236,6.32,48,48,48,19.409879,0.057881,0.006387,-0.021168,-0.007989,0.000597,3,0,0,0,0,0,0
1.006837362,0.209086485,-1.76531,-0.002516,0.001006,0,3,985256,6.34,48,48,48,19.469878,0.058268,0.006395,-0.021253,-0.00673,0.000277,3,0,0,0,0,0,0
1.006837362,0.209086485,-1.81797,-0.008014,0.003449,0,3,985276,6.36,48,48,48,19.529876,0.058671,0.006433,-0.021343,-0.009256,0.001171,3,0,0,0,0,0,0
1.006837362,0.209086485,-1.825151,-0.003127,0.00238,0,3,985296,6.38,48,48,48,19.589875,0.059076,0.006468,-0.021397,-0.006125,0.000745,3,0,0,0,0,0,0
1.006837362,0.209086485,-1.790443,-0.002516,0.002838,0,3,985316,6.4,48,48,48,19.649874,0.05947,0.00648,-0.02145,-0.005832,0.000831,3,0,0,0,0,0,0
1.006837362,0.209086485,-1.79523,-0.007556,0.002533,0,3,985337,6.421,48,48,48,19.709872,0.059881,0.006524,-0.021515,-0.00725,-0.000105,3,0,0,0,0,0,0
1.006837362,0.209086485,-1.81797,-0.002516,0.000089,0,3,985356,6.44,48,48,48,19.769871,0.060281,0.006541,-0.021589,-0.006546,0.000113,3,0,0,0,0,0,0
1.006837362,0.209086485,-1.807198,-0.005724,0.001464,0,3,985376,6.46,48,48,48,19.82987,0.060672,0.006538,-0.021668,-0.008042,0.000421,3,0,0,0,0,0,0
1.006837362,0.209086485,-1.809592,-0.003433,0.006045,0,3,985396,6.48,48,48,48,19.889868,0.061073,0.006554,-0.02174,-0.006679,0.001854,3,0,0,0,0,0,0
1.006837362,0.209086485,-1.810789,-0.007556,0.000853,0,3,985416,6.5,48,48,48,19.949867,0.061493,0.006605,-0.021792,-0.008179,0.000273,3,0,0,0,0,0,0
1.006837362,0.209086485,-1.802411,-0.004196,-0.000369,0,3,985437,6.521,48,48,48,20.009865,0.061915,0.006657,-0.021805,-0.003295,0.000953,3,0,0,0,0,0,0
1.006837362,0.209086485,-1.832331,-0.000531,0.002075,0,3,985456,6.54,48,48,48,20.069864,0.062327,0.006681,-0.021818,-0.003914,0.000631,3,0,0,0,0,0,0
1.006837362,0.209086485,-1.81797,-0.000837,-0.004339,0,3,985476,6.56,48,48,48,20.129862,0.062751,0.006726,-0.021865,-0.005264,-0.001187,3,0,0,0,0,0,0
1.006837362,0.209086485,-1.820363,-0.004655,0.000853,0,3,985496,6.58,48,48,48,20.189861,0.06314,0.006699,-0.021903,-0.006525,0.000275,3,0,0,0,0,0,0
1.006837362,0.209086485,-1.784459,-0.003127,-0.000674,0,3,985516,6.6,48,48,48,20.24986,0.063553,0.00672,-0.021938,-0.00536,0.000092,3,0,0,0,0,0,0
1.006837362,0.209086485,-1.808395,-0.002516,0.004976,0,3,985537,6.621,48,48,48,20.309858,0.063955,0.006718,-0.021967,-0.005335,0.002179,3,0,0,0,0,0,0
1.006837362,0.209086485,-1.813182,-0.002975,0.00406,0,3,985556,6.64,48,48,48,20.369857,0.06441,0.006819,-0.022003,-0.006166,0.002196,3,0,0,0,0,0,0
1.006837362,0.209086485,-1.782065,-0.004044,-0.000063,0,3,985576,6.66,48,48,48,20.429855,0.064867,0.006913,-0.022044,-0.00639,0.000138,3,0,0,0,0,0,0
1.006837362,0.209086485,-1.8443,-0.006945,0.000242,0,3,985596,6.68,48,48,48,20.489853,0.065292,0.006933,-0.022105,-0.007839,-0.000456,3,0,0,0,0,0,0
1.006837362,0.209086485,-1.809592,-0.006029,0.000089,0,3,985616,6.7,48,48,48,20.549852,0.065702,0.006922,-0.022174,-0.006364,0.000498,3,0,0,0,0,0,0
1.006837362,0.209086485,-1.808395,-0.000226,0.002075,0,3,985637,6.721,48,48,48,20.609851,0.066125,0.006937,-0.022216,-0.00463,0.000643,3,0,0,0,0,0,0
1.006837362,0.209086485,-1.822757,-0.003127,0.001006,0,3,985656,6.74,48,48,48,20.669849,0.066559,0.006972,-0.022212,-0.004429,0.000104,3,0,0,0,0,0,0
1.006837362,0.209086485,-1.809592,-0.005265,0.001769,0,3,985676,6.76,48,48,48,20.729847,0.066983,0.006982,-0.022209,-0.002757,0.000344,3,0,0,0,0,0,0
1.006837362,0.209086485,-1.79882,-0.005265,0.002838,0,3,985696,6.78,48,48,48,20.789846,0.067414,0.007006,-0.022241,-0.00546,0.001245,3,0,0,0,0,0,0
1.006837362,0.209086485,-1.826347,-0.00664,0.001617,0,3,985716,6.8,48,48,48,20.849844,0.067864,0.007064,-0.022287,-0.005825,0.000413,3,0,0,0,0,0,0
1.006837362,0.209086485,-1.782065,-0.004196,-0.002201,0,3,985737,6.821,48,48,48,20.909843,0.0683,0.007088,-0.022355,-0.007345,-0.000604,3,0,0,0,0,0,0
1.006837362,0.209086485,-1.785655,-0.0016,0.002838,0,3,985756,6.84,48,48,48,20.969841,0.068708,0.007054,-0.022393,-0.005127,0.000787,3,0,0,0,0,0,0
1.006837362,0.209086485,-1.827544,-0.005876,-0.000216,0,3,985776,6.86,48,48,48,21.02984,0.069153,0.007096,-0.022426,-0.007073,0.000026,3,0,0,0,0,0,0
1.006837362,0.209086485,-1.796427,-0.005876,0.003449,0,3,985796,6.88,48,48,48,21.089838,0.069587,0.007113,-0.022508,-0.008263,0.001112,3,0,0,0,0,0,0
1.006837362,0.209086485,-1.785655,-0.003738,0.0007,0,3,985816,6.9,48,48,48,21.149836,0.070057,0.007198,-0.022578,-0.007117,0.000446,3,0,0,0,0,0,0
1.006837362,0.209086485,-1.825151,-0.001906,-0.000063,0,3,985837,6.921,48,48,48,21.209835,0.070499,0.007218,-0.022619,-0.007155,0.000528,3,0,0,0,0,0,0
1.006837362,0.209086485,-1.809592,-0.005724,0.003602,0,3,985856,6.94,48,48,48,21.269833,0.07094,0.007233,-0.022663,-0.007152,0.001095,3,0,0,0,0,0,0
1.006837362,0.209086485,-1.840709,-0.002058,0.007114,0,3,985876,6.96,48,48,48,21.329831,0.071396,0.007277,-0.022712,-0.00553,0.002219,3,0,0,0,0,0,0
1.006837362,0.209086485,-1.802411,-0.001142,0.000853,0,3,985896,6.98,48,48,48,21.389829,0.071878,0.007364,-0.02275,-0.005073,0.000389,3,0,0,0,0,0,0
1.006837362,0.209086485,-1.814379,-0.006793,0.001617,0,3,985916,7,48,48,48,21.449828,0.072343,0.007411,-0.022792,-0.007696,0.000638,3,0,0,0,0,0,0
1.006837362,0.209086485,-1.804805,-0.005418,0.002686,0,3,985937,7.021,48,48,48,21.509826,0.072816,0.007465,-0.022867,-0.006796,0.001573,3,0,0,0,0,0,0
1.006837362,0.209086485,-1.835922,-0.008778,0.005893,0,3,985956,7.04,48,48,48,21.569824,0.073297,0.007531,-0.022959,-0.009798,0.001885,3,0,0,0,0,0,0
1.006837362,0.209086485,-1.79882,-0.006029,0.003602,0,3,985976,7.06,48,48,48,21.629822,0.073788,0.007606,-0.023016,-0.007713,0.001198,3,0,0,0,0,0,0
1.006837362,0.209086485,-1.823954,-0.002211,0.001158,0,3,985996,7.08,48,48,48,21.68982,0.074282,0.007681,-0.023061,-0.005794,0.000537,3,0,0,0,0,0,0
1.006837362,0.209086485,-1.803608,-0.00328,0.005435,0,3,986016,7.1,48,48,48,21.749818,0.074783,0.007761,-0.023111,-0.006249,0.001917,3,0,0,0,0,0,0
1.006837362,0.209086485,-1.816773,-0.004044,0.00574,0,3,986037,7.121,48,48,48,21.809816,0.075271,0.007802,-0.023148,-0.00595,-0.000002,3,0,0,0,0,0,0
1.006837362,0.209086485,-1.801214,-0.007403,-0.002201,0,3,986056,7.14,48,48,48,21.869814,0.075761,0.007847,-0.023212,-0.008826,-0.00048,3,0,0,0,0,0,0
1.006837362,0.209086485,-1.82156,-0.008167,0.003449,0,3,986076,7.16,48,48,48,21.929812,0.076234,0.007851,-0.02327,-0.008733,0.001109,3,0,0,0,0,0,0
1.006837362,0.209086485,-1.807198,-0.005571,0.001464,0,3,986096,7.18,48,48,48,21.98981,0.076733,0.007907,-0.023328,-0.007164,0.001343,3,0,0,0,0,0,0
1.006837362,0.209086485,-1.815576,-0.005418,-0.000674,0,3,986116,7.2,48,48,48,22.049808,0.077233,0.007957,-0.023393,-0.007327,0.000094,3,0,0,0,0,0,0
1.006837362,0.209086485,-1.813182,-0.005265,0.003297,0,3,986136,7.22,48,48,48,22.109806,0.07771,0.007954,-0.023463,-0.007796,0.00098,3,0,0,0,0,0,0
1.006837362,0.209086485,-1.804805,-0.006029,0.004976,0,3,986156,7.24,48,48,48,22.169804,0.078204,0.007986,-0.023531,-0.005987,0.001078,3,0,0,0,0,0,0
1.006837362,0.209086485,-1.816773,-0.007251,-0.000063,0,3,986176,7.26,48,48,48,22.229802,0.078718,0.008056,-0.023585,-0.006259,0.001541,3,0,0,0,0,0,0
1.006837362,0.209086485,-1.797624,-0.006029,0.000242,0,3,986196,7.28,48,48,48,22.289799,0.079224,0.008099,-0.023665,-0.008082,0.000785,3,0,0,0,0,0,0
1.006837362,0.209086485,-1.81797,-0.008014,0.001617,0,3,986216,7.3,48,48,48,22.349797,0.079723,0.008124,-0.023761,-0.009875,0.000508,3,0,0,0,0,0,0
1.006837362,0.209086485,-1.79164,-0.005265,0.001464,0,3,986236,7.32,48,48,48,22.409795,0.080222,0.008147,-0.023831,-0.007943,0.00049,3,0,0,0,0,0,0
1.006837362,0.209086485,-1.819166,-0.006334,0.000242,0,3,986256,7.34,48,48,48,22.469793,0.08073,0.008183,-0.023895,-0.008598,0.00008,3,0,0,0,0,0,0
1.006837362,0.209086485,-1.833528,-0.004502,-0.001743,0,3,986276,7.36,48,48,48,22.529791,0.081223,0.008188,-0.023973,-0.007989,-0.000512,3,0,0,0,0,0,0
1.006837362,0.209086485,-1.814379,0.000691,0.000853,0,3,986296,7.38,48,48,48,22.589789,0.081703,0.008167,-0.024034,-0.006499,0.00074,3,0,0,0,0,0,0
1.006837362,0.209086485,-1.79882,-0.002822,-0.000521,0,3,986316,7.4,48,48,48,22.649787,0.082208,0.008195,-0.024031,-0.004832,0.000897,3,0,0,0,0,0,0
1.006837362,0.209086485,-1.820363,-0.000378,0.000853,0,3,986337,7.421,48,48,48,22.709785,0.082711,0.008216,-0.024035,-0.003989,0.000258,3,0,0,0,0,0,0
1.006837362,0.209086485,-1.822757,-0.002211,0.001158,0,3,986356,7.44,48,48,48,22.769783,0.083234,0.008277,-0.02403,-0.00402,0.001081,3,0,0,0,0,0,0
1.006837362,0.209086485,-1.797624,-0.010763,-0.00327,0,3,986376,7.46,48,48,48,22.82978,0.083751,0.008316,-0.024089,-0.010334,-0.00094,3,0,0,0,0,0,0
1.006837362,0.209086485,-1.825151,-0.005724,-0.002049,0,3,986396,7.48,48,48,48,22.889778,0.084253,0.008324,-0.024129,-0.006069,-0.0003,3,0,0,0,0,0,0
1.006837362,0.209086485,-1.828741,-0.003891,0.001464,0,3,986416,7.5,48,48,48,22.949776,0.08474,0.0083,-0.024189,-0.007473,0.000794,3,0,0,0,0,0,0
1.006837362,0.209086485,-1.754538,-0.0016,0.001311,0,3,986436,7.52,48,48,48,23.009774,0.085256,0.008334,-0.024224,-0.005386,0.000458,3,0,0,0,0,0,0
1.006837362,0.209086485,-1.762916,-0.004807,-0.001285,0,3,986456,7.54,48,48,48,23.069772,0.08578,0.008382,-0.024266,-0.00718,-0.000236,3,0,0,0,0,0,0
1.006837362,0.209086485,-1.785655,-0.007098,0.001769,0,3,986476,7.56,48,48,48,23.12977,0.086286,0.008388,-0.024307,-0.006452,0.000174,3,0,0,0,0,0,0
1.006837362,0.209086485,-1.829938,-0.003586,0.003144,0,3,986496,7.58,48,48,48,23.189768,0.086798,0.008407,-0.024375,-0.007139,0.001014,3,0,0,0,0,0,0
1.006837362,0.209086485,-1.82156,-0.007098,0.003602,0,3,986516,7.6,48,48,48,23.249765,0.087325,0.008451,-0.024436,-0.008526,0.001163,3,0,0,0,0,0,0
1.006837362,0.209086485,-1.828741,-0.002669,0.004824,0,3,986536,7.62,48,48,48,23.309763,0.087847,0.008477,-0.024464,-0.005575,0.001449,3,0,0,0,0,0,0
1.006837362,0.209086485,-1.82156,-0.004349,0.00406,0,3,986556,7.64,48,48,48,23.369761,0.088363,0.00849,-0.024514,-0.00707,-0.000024,3,0,0,0,0,0,0
1.006837362,0.209086485,-1.833528,-0.004349,-0.000521,0,3,986576,7.66,48,48,48,23.429758,0.088887,0.008521,-0.02456,-0.006739,-0.000577,3,0,0,0,0,0,0
1.006837362,0.209086485,-1.823954,-0.000531,0.002228,0,3,986596,7.68,48,48,48,23.489756,0.089388,0.0085,-0.024618,-0.008188,-0.000222,3,0,0,0,0,0,0
1.006837362,0.209086485,-1.808395,-0.005113,-0.002201,0,3,986616,7.7,48,48,48,23.549754,0.089903,0.008512,-0.024653,-0.007396,0.000836,3,0,0,0,0,0,0
1.006837362,0.209086485,-1.801214,-0.003127,0.003144,0,3,986637,7.721,48,48,48,23.609752,0.090418,0.008518,-0.024686,-0.004615,0.000621,3,0,0,0,0,0,0
1.006837362,0.209086485,-1.79164,-0.004196,0.003602,0,3,986656,7.74,48,48,48,23.66975,0.090951,0.008561,-0.024705,-0.005716,0.000323,3,0,0,0,0,0,0
1.006837362,0.209086485,-1.803608,-0.005418,0.004671,0,3,986676,7.76,48,48,48,23.729747,0.091483,0.008598,-0.024749,-0.007024,0.000657,3,0,0,0,0,0,0
1.006837362,0.209086485,-1.820363,-0.007251,-0.001438,0,3,986696,7.78,48,48,48,23.789745,0.092027,0.008653,-0.024817,-0.008129,0.000418,3,0,0,0,0,0,0
1.006837362,0.209086485,-1.789246,-0.002516,0.000548,0,3,986716,7.8,48,48,48,23.849743,0.092547,0.008654,-0.02489,-0.007261,0.000316,3,0,0,0,0,0,0
1.006837362,0.209086485,-1.813182,-0.007403,-0.000216,0,3,986737,7.821,48,48,48,23.90974,0.093073,0.008667,-0.024931,-0.007245,0.000467,3,0,0,0,0,0,0
1.006837362,0.209086485,-1.823954,-0.00664,0.003755,0,3,986756,7.84,48,48,48,23.969738,0.093599,0.008679,-0.024981,-0.005084,0.000542,3,0,0,0,0,0,0
1.006837362,0.209086485,-1.815576,-0.002516,-0.000369,0,3,986776,7.86,48,48,48,24.029735,0.094142,0.008724,-0.025048,-0.008155,0.001033,3,0,0,0,0,0,0
1.006837362,0.209086485,-1.820363,-0.00496,-0.000369,0,3,986796,7.88,48,48,48,24.089733,0.09468,0.00875,-0.025079,-0.005848,0.000817,3,0,0,0,0,0,0
1.006837362,0.209086485,-1.79523,-0.002211,0.0007,0,3,986816,7.9,48,48,48,24.149731,0.095216,0.008771,-0.025116,-0.005884,0.000215,3,0,0,0,0,0,0
1.006837362,0.209086485,-1.82156,-0.002975,0.003297,0,3,986837,7.921,48,48,48,24.209728,0.095752,0.008791,-0.025141,-0.005085,0.001338,3,0,0,0,0,0,0
1.006837362,0.209086485,-1.79882,-0.00496,0.002838,0,3,986856,7.94,48,48,48,24.269726,0.096312,0.008855,-0.025174,-0.006958,0.00098,3,0,0,0,0,0,0
1.006837362,0.209086485,-1.806001,-0.004044,0.003907,0,3,986876,7.96,48,48,48,24.329723,0.096878,0.008923,-0.025199,-0.006976,0.000757,3,0,0,0,0,0,0
1.006837362,0.209086485,-1.808395,-0.006793,0.001158,0,3,986896,7.98,48,48,48,24.38972,0.09744,0.008975,-0.025229,-0.005234,0.001504,3,0,0,0,0,0,0
1.006837362,0.209086485,-1.820363,-0.003738,0.002686,0,3,986916,8,48,48,48,24.449718,0.098005,0.009026,-0.025266,-0.004957,0.000919,3,0,0,0,0,0,0
1.006837362,0.209086485,-1.801214,-0.007098,-0.000369,0,3,986937,8.021,48,48,48,24.509715,0.098571,0.009074,-0.025299,-0.006466,0.001557,3,0,0,0,0,0,0
1.006837336,0.209086561,-1.804805,-0.001447,0.003144,0,3,986956,8.04,73,73,73,24.569712,0.099137,0.009115,-0.025358,-0.006741,-0.000652,3,0,0,0,0,0,0
1.006837336,0.209086561,-1.782065,-0.002822,0.002838,0,3,986976,8.06,73,73,73,24.62971,0.099686,0.009121,-0.025352,-0.003663,0.000357,3,0,0,0,0,0,0
1.006837336,0.209086561,-1.79164,-0.003891,0.002991,0,3,986996,8.08,73,73,73,24.689707,0.10025,0.009153,-0.025401,-0.00949,-0.000109,3,0,0,0,0,0,0
1.006837336,0.209086561,-1.808395,-0.005724,0.000242,0,3,987016,8.1,73,73,73,24.749705,0.100809,0.009174,-0.025468,-0.008372,0.000172,3,0,0,0,0,0,0
1.006837336,0.209086561,-1.802411,-0.001295,0.005282,0,3,987037,8.121,73,73,73,24.809702,0.10137,0.009195,-0.02555,-0.008123,-0.000821,3,0,0,0,0,0,0
1.006837336,0.209086561,-1.785655,-0.004655,-0.000216,0,3,987056,8.14,73,73,73,24.869699,0.10193,0.009213,-0.02558,-0.00692,0.000098,3,0,0,0,0,0,0
1.006837336,0.209086561,-1.758129,-0.002364,0.001617,0,3,987076,8.16,73,73,73,24.929697,0.102487,0.009222,-0.025615,-0.005948,0.000523,3,0,0,0,0,0,0
1.006837336,0.209086561,-1.754538,-0.006029,-0.00098,0,3,987096,8.18,73,73,73,24.989694,0.103053,0.009245,-0.025677,-0.008452,-0.000254,3,0,0,0,0,0,0
1.006837336,0.209086561,-1.808395,-0.002211,0.001922,0,3,987116,8.2,73,73,73,25.049691,0.103618,0.009267,-0.025722,-0.006186,0.000704,3,0,0,0,0,0,0
1.006837336,0.209086561,-1.819166,-0.003586,-0.000216,0,3,987137,8.221,73,73,73,25.109689,0.104203,0.009324,-0.025767,-0.006353,0.000374,3,0,0,0,0,0,0
1.006837336,0.209086561,-1.81797,-0.005571,0.002075,0,3,987156,8.24,73,73,73,25.169686,0.104767,0.009333,-0.025813,-0.007708,0.000628,3,0,0,0,0,0,0
1.006837336,0.209086561,-1.802411,-0.006029,0.000242,0,3,987176,8.26,73,73,73,25.229683,0.105342,0.009363,-0.025885,-0.008721,0.000136,3,0,0,0,0,0,0
1.006837336,0.209086561,-1.786852,-0.005418,0.004213,0,3,987196,8.28,73,73,73,25.289681,0.105913,0.00938,-0.025969,-0.008606,0.001331,3,0,0,0,0,0,0
1.006837336,0.209086561,-1.827544,-0.008167,0.001006,0,3,987216,8.3,73,73,73,25.349678,0.106513,0.009454,-0.02604,-0.009276,-0.000682,3,0,0,0,0,0,0
1.006837336,0.209086561,-1.839512,-0.005724,-0.002507,0,3,987236,8.32,73,73,73,25.409675,0.107074,0.009443,-0.02614,-0.009499,-0.000726,3,0,0,0,0,0,0
1.006837336,0.209086561,-1.841906,-0.004044,0.003907,0,3,987256,8.34,73,73,73,25.469672,0.107655,0.009473,-0.026178,-0.006784,0.001384,3,0,0,0,0,0,0
1.006837336,0.209086561,-1.784459,-0.002516,-0.000369,0,3,987276,8.36,73,73,73,25.529669,0.108246,0.009515,-0.026179,-0.005268,-0.000078,3,0,0,0,0,0,0
1.006837336,0.209086561,-1.79164,-0.003738,0.003602,0,3,987296,8.38,73,73,73,25.589666,0.108829,0.009541,-0.026231,-0.007048,0.001207,3,0,0,0,0,0,0
1.006837336,0.209086561,-1.810789,-0.009236,0.00406,0,3,987316,8.4,73,73,73,25.649663,0.109419,0.009574,-0.026315,-0.010393,0.001235,3,0,0,0,0,0,0
1.006837336,0.209086561,-1.797624,-0.000226,0.001464,0,3,987336,8.42,73,73,73,25.70966,0.110022,0.00963,-0.026355,-0.00526,0.00055,3,0,0,0,0,0,0
1.006837336,0.209086561,-1.827544,-0.003891,0.003907,0,3,987356,8.44,73,73,73,25.769658,0.110615,0.009659,-0.026387,-0.00658,0.001243,3,0,0,0,0,0,0
1.006837336,0.209086561,-1.827544,-0.006182,0.000548,0,3,987376,8.46,73,73,73,25.829654,0.11122,0.009709,-0.02645,-0.00861,0.000245,3,0,0,0,0,0,0
1.006837336,0.209086561,-1.802411,-0.004807,0.001311,0,3,987396,8.48,73,73,73,25.889651,0.111822,0.009748,-0.02648,-0.007069,0.000532,3,0,0,0,0,0,0
1.006837336,0.209086561,-1.828741,-0.005876,0.001006,0,3,987416,8.5,73,73,73,25.949648,0.112429,0.009791,-0.026513,-0.007637,0.000427,3,0,0,0,0,0,0
1.006837336,0.209086561,-1.816773,-0.00496,0.004671,0,3,987436,8.52,73,73,73,26.009645,0.113033,0.009824,-0.026565,-0.007609,0.001506,3,0,0,0,0,0,0
1.006837336,0.209086561,-1.811985,-0.005265,0.003297,0,3,987456,8.54,73,73,73,26.069642,0.113647,0.009871,-0.026619,-0.007882,0.001035,3,0,0,0,0,0,0
1.006837336,0.209086561,-1.808395,-0.008472,-0.002507,0,3,987476,8.56,73,73,73,26.129639,0.114263,0.009917,-0.026682,-0.009782,-0.000677,3,0,0,0,0,0,0
1.006837336,0.209086561,-1.807198,-0.007709,-0.00159,0,3,987496,8.58,73,73,73,26.189636,0.11486,0.009921,-0.026753,-0.008693,0.001088,3,0,0,0,0,0,0
1.006837336,0.209086561,-1.800017,-0.002975,0.0007,0,3,987516,8.6,73,73,73,26.249633,0.115465,0.00994,-0.026804,-0.004869,0.001429,3,0,0,0,0,0,0
1.006837336,0.209086561,-1.811985,-0.000837,0.000395,0,3,987536,8.62,73,73,73,26.30963,0.116085,0.009986,-0.026807,-0.004633,0.000164,3,0,0,0,0,0,0
1.006837336,0.209086561,-1.79164,-0.005113,-0.000063,0,3,987556,8.64,73,73,73,26.369627,0.116691,0.009999,-0.026794,-0.00339,0.000991,3,0,0,0,0,0,0
1.006837336,0.209086561,-1.801214,-0.000684,0.002533,0,3,987576,8.66,73,73,73,26.429624,0.117305,0.010027,-0.026837,-0.008045,-0.000744,3,0,0,0,0,0,0
1.006837336,0.209086561,-1.808395,-0.006182,-0.00098,0,3,987596,8.68,73,73,73,26.489621,0.117906,0.010025,-0.02684,-0.004826,0.001213,3,0,0,0,0,0,0
1.006837336,0.209086561,-1.840709,-0.002516,0.0007,0,3,987616,8.7,73,73,73,26.549617,0.118522,0.010052,-0.026879,-0.006164,0.001215,3,0,0,0,0,0,0
1.006837336,0.209086561,-1.873023,-0.001142,0.00238,0,3,987636,8.72,73,73,73,26.609614,0.119146,0.010092,-0.026886,-0.00482,0.000761,3,0,0,0,0,0,0
1.006837336,0.209086561,-1.840709,0.000232,0.000548,0,3,987656,8.74,73,73,73,26.669611,0.119755,0.010099,-0.026901,-0.004471,0.000122,3,0,0,0,0,0,0
1.006837336,0.209086561,-1.797624,-0.006029,0.002991,0,3,987676,8.76,73,73,73,26.729608,0.120367,0.010111,-0.026957,-0.008331,0.000941,3,0,0,0,0,0,0
1.006837336,0.209086561,-1.778475,-0.00496,0.004671,0,3,987696,8.78,73,73,73,26.789605,0.120987,0.010136,-0.027007,-0.007613,0.00142,3,0,0,0,0,0,0
1.006837336,0.209086561,-1.825151,-0.0016,0.003144,0,3,987716,8.8,73,73,73,26.849601,0.121627,0.010199,-0.027067,-0.006584,0.000649,3,0,0,0,0,0,0
1.006837336,0.209086561,-1.827544,-0.004196,-0.001438,0,3,987736,8.82,73,73,73,26.909598,0.122261,0.010242,-0.027087,-0.006724,-0.000323,3,0,0,0,0,0,0
1.006837336,0.209086561,-1.804805,-0.002516,-0.000216,0,3,987756,8.84,73,73,73,26.969595,0.122869,0.010229,-0.027112,-0.006074,-0.000079,3,0,0,0,0,0,0
1.006837336,0.209086561,-1.811985,-0.001142,0.006045,0,3,987776,8.86,73,73,73,27.029592,0.12348,0.010225,-0.027146,-0.005423,0.001826,3,0,0,0,0,0,0
1.006837336,0.209086561,-1.8443,-0.002669,-0.001743,0,3,987796,8.88,73,73,73,27.089588,0.124138,0.010311,-0.027171,-0.006219,-0.000362,3,0,0,0,0,0,0
1.006837336,0.209086561,-1.825151,-0.003586,0.004824,0,3,987816,8.9,73,73,73,27.149585,0.124743,0.010285,-0.027227,-0.007174,0.001395,3,0,0,0,0,0,0
1.006837336,0.209086561,-1.794033,-0.00496,-0.000216,0,3,987836,8.92,73,73,73,27.209582,0.125374,0.01031,-0.027254,-0.007247,-0.000105,3,0,0,0,0,0,0
1.006837336,0.209086561,-1.816773,-0.002822,-0.001285,0,3,987856,8.94,73,73,73,27.269579,0.126005,0.010335,-0.027309,-0.007079,-0.000268,3,0,0,0,0,0,0
1.006837336,0.209086561,-1.789246,-0.007862,0.006351,0,3,987876,8.96,73,73,73,27.329575,0.126623,0.010332,-0.02739,-0.009766,0.001937,3,0,0,0,0,0,0
1.006837336,0.209086561,-1.776081,-0.005113,0.004824,0,3,987896,8.98,73,73,73,27.389572,0.127272,0.010388,-0.027448,-0.007989,0.001487,3,0,0,0,0,0,0
1.006837336,0.209086561,-1.774884,-0.001447,0.006504,0,3,987916,9,73,73,73,27.449568,0.127932,0.010458,-0.02747,-0.005257,0.002102,3,0,0,0,0,0,0
1.006837336,0.209086561,-1.827544,-0.002058,0.004518,0,3,987937,9.021,73,73,73,27.509565,0.128591,0.01052,-0.027493,-0.006614,0.000524,3,0,0,0,0,0,0
1.006837336,0.209086561,-1.861055,-0.003433,0.004671,0,3,987956,9.04,73,73,73,27.569561,0.129248,0.01057,-0.027512,-0.006157,0.001565,3,0,0,0,0,0,0
1.006837336,0.209086561,-1.827544,-0.004502,0.002533,0,3,987976,9.06,73,73,73,27.629557,0.129911,0.010625,-0.027562,-0.007618,0.00083,3,0,0,0,0,0,0
1.006837336,0.209086561,-1.804805,-0.006793,0.002991,0,3,987996,9.08,73,73,73,27.689554,0.130566,0.010659,-0.027652,-0.009715,0.00096,3,0,0,0,0,0,0
1.006837336,0.209086561,-1.789246,-0.00664,-0.002049,0,3,988016,9.1,73,73,73,27.74955,0.131215,0.010676,-0.027702,-0.008727,-0.000645,3,0,0,0,0,0,0
1.006837336,0.209086561,-1.79164,-0.006945,-0.000521,0,3,988037,9.121,73,73,73,27.809547,0.131862,0.010692,-0.027737,-0.007886,0.001592,3,0,0,0,0,0,0
1.006837336,0.209086561,-1.810789,-0.008014,0.005893,0,3,988056,9.14,73,73,73,27.869543,0.132526,0.010733,-0.027833,-0.010314,0.001785,3,0,0,0,0,0,0
1.006837336,0.209086561,-1.819166,-0.002516,0.000395,0,3,988076,9.16,73,73,73,27.929539,0.133213,0.010818,-0.027876,-0.006672,0.000285,3,0,0,0,0,0,0
1.006837336,0.209086561,-1.806001,-0.005724,0.001769,0,3,988096,9.18,73,73,73,27.989536,0.133845,0.010783,-0.027937,-0.00851,0.000366,3,0,0,0,0,0,0
1.006837336,0.209086561,-1.794033,-0.003127,0.000242,0,3,988116,9.2,73,73,73,28.049532,0.134496,0.01079,-0.028023,-0.008137,0.000069,3,0,0,0,0,0,0
1.006837336,0.209086561,-1.783262,-0.001447,0.006504,0,3,988137,9.221,73,73,73,28.109529,0.13516,0.010824,-0.028049,-0.005471,0.002101,3,0,0,0,0,0,0
1.006837336,0.209086561,-1.822757,-0.006793,0.005435,0,3,988156,9.24,73,73,73,28.169525,0.135853,0.010909,-0.028083,-0.008139,0.001772,3,0,0,0,0,0,0
1.006837336,0.209086561,-1.814379,-0.007709,0.001769,0,3,988176,9.26,73,73,73,28.229521,0.136545,0.01098,-0.028172,-0.010246,0.000644,3,0,0,0,0,0,0
1.006837336,0.209086561,-1.794033,-0.002975,0.002228,0,3,988196,9.28,73,73,73,28.289517,0.13722,0.011013,-0.028195,-0.006273,0.000743,3,0,0,0,0,0,0
1.006837336,0.209086561,-1.827544,-0.003127,-0.000063,0,3,988216,9.3,73,73,73,28.349513,0.137899,0.011049,-0.028227,-0.006683,0.000056,3,0,0,0,0,0,0
1.006837336,0.209086561,-1.822757,-0.001906,0.005587,0,3,988236,9.32,73,73,73,28.40951,0.138555,0.011035,-0.028245,-0.005532,0.00163,3,0,0,0,0,0,0
1.006837336,0.209086561,-1.816773,-0.003891,0.005129,0,3,988256,9.34,73,73,73,28.469505,0.139253,0.011105,-0.028262,-0.006404,0.001667,3,0,0,0,0,0,0
1.006837336,0.209086561,-1.789246,-0.003127,0.002533,0,3,988276,9.36,73,73,73,28.529501,0.139955,0.011174,-0.028291,-0.006529,0.00088,3,0,0,0,0,0,0
1.006837336,0.209086561,-1.807198,-0.002058,-0.000674,0,3,988296,9.38,73,73,73,28.589497,0.140653,0.011229,-0.028298,-0.005567,-0.000068,3,0,0,0,0,0,0
1.006837336,0.209086561,-1.81797,-0.002822,0.001617,0,3,988316,9.4,73,73,73,28.649493,0.141337,0.011248,-0.028322,-0.006272,0.000579,3,0,0,0,0,0,0
1.006837336,0.209086561,-1.843103,-0.002058,0.004824,0,3,988336,9.42,73,73,73,28.709489,0.142027,0.011278,-0.028346,-0.005826,0.001526,3,0,0,0,0,0,0
1.006837336,0.209086561,-1.808395,-0.002975,0.000242,0,3,988356,9.44,73,73,73,28.769485,0.142731,0.01133,-0.028423,-0.007884,0.000135,3,0,0,0,0,0,0
1.006837336,0.209086561,-1.79164,-0.004807,0.002533,0,3,988376,9.46,73,73,73,28.829481,0.143422,0.011354,-0.028457,-0.007422,0.000852,3,0,0,0,0,0,0
1.006837336,0.209086561,-1.783262,-0.005876,0.002838,0,3,988396,9.48,73,73,73,28.889477,0.144119,0.011383,-0.028517,-0.008634,0.000889,3,0,0,0,0,0,0
1.006837336,0.209086561,-1.801214,-0.00328,0.002838,0,3,988416,9.5,73,73,73,28.949473,0.14482,0.011418,-0.028585,-0.007686,0.000917,3,0,0,0,0,0,0
1.006837336,0.209086561,-1.802411,-0.005571,-0.001438,0,3,988436,9.52,73,73,73,29.009469,0.145514,0.011436,-0.028654,-0.00892,-0.000454,3,0,0,0,0,0,0
1.006837336,0.209086561,-1.825151,-0.002364,0.002991,0,3,988456,9.54,73,73,73,29.069465,0.146182,0.0114,-0.028712,-0.006991,0.000813,3,0,0,0,0,0,0
1.006837336,0.209086561,-1.829938,-0.001295,0.002991,0,3,988476,9.56,73,73,73,29.129462,0.146873,0.011413,-0.028711,-0.004915,0.000879,3,0,0,0,0,0,0
1.006837336,0.209086561,-1.79164,-0.003891,0.001158,0,3,988496,9.58,73,73,73,29.189457,0.147576,0.011447,-0.028731,-0.006742,0.000402,3,0,0,0,0,0,0
1.006837336,0.209086561,-1.828741,-0.003586,0.003144,0,3,988516,9.6,73,73,73,29.249453,0.148269,0.011458,-0.028778,-0.007258,0.000959,3,0,0,0,0,0,0
1.006837336,0.209086561,-1.81797,-0.002822,0.001158,0,3,988536,9.62,73,73,73,29.309449,0.148977,0.011498,-0.028801,-0.006327,0.000418,3,0,0,0,0,0,0
1.006837336,0.209086561,-1.800017,-0.000378,0.00406,0,3,988556,9.64,73,73,73,29.369445,0.149693,0.01155,-0.028821,-0.005067,0.001402,3,0,0,0,0,0,0
1.006837336,0.209086561,-1.831135,0.001149,0.004824,0,3,988576,9.66,73,73,73,29.429441,0.150406,0.01159,-0.028806,-0.003373,0.001479,3,0,0,0,0,0,0
1.006837336,0.209086561,-1.815576,-0.004044,-0.001438,0,3,988596,9.68,73,73,73,29.489436,0.151136,0.011658,-0.028816,-0.006652,-0.000309,3,0,0,0,0,0,0
1.006837336,0.209086561,-1.8443,-0.008472,0.000242,0,3,988616,9.7,73,73,73,29.549432,0.151847,0.011681,-0.028849,-0.009203,0.0002,3,0,0,0,0,0,0
1.006837336,0.209086561,-1.797624,-0.004807,0.000089,0,3,988636,9.72,73,73,73,29.609428,0.152557,0.011698,-0.028883,-0.00761,0.000081,3,0,0,0,0,0,0
1.006837336,0.209086561,-1.778475,-0.006334,0.003144,0,3,988656,9.74,73,73,73,29.669424,0.153275,0.011732,-0.028954,-0.009183,0.001085,3,0,0,0,0,0,0
1.006837336,0.209086561,-1.815576,-0.002058,0.003297,0,3,988676,9.76,73,73,73,29.729419,0.154001,0.011773,-0.029008,-0.009114,0.001192,3,0,0,0,0,0,0
1.006837336,0.209086561,-1.838316,-0.00328,0.000548,0,3,988696,9.78,73,73,73,29.789415,0.154738,0.011833,-0.029013,-0.004467,-0.000169,3,0,0,0,0,0,0
1.006837336,0.209086561,-1.792836,-0.00664,0.004518,0,3,988716,9.8,73,73,73,29.84941,0.155447,0.011832,-0.029033,-0.007021,0.000555,3,0,0,0,0,0,0
1.006837336,0.209086561,-1.823954,-0.002822,0.001464,0,3,988737,9.821,73,73,73,29.909406,0.156183,0.011883,-0.029086,-0.007215,0.000553,3,0,0,0,0,0,0
1.006837336,0.209086561,-1.790443,-0.00664,0.002075,0,3,988756,9.84,73,73,73,29.969402,0.15691,0.011911,-0.029141,-0.009786,0.000728,3,0,0,0,0,0,0
1.006837336,0.209086561,-1.845496,-0.006182,-0.000369,0,3,988776,9.86,73,73,73,30.029397,0.157643,0.011948,-0.029199,-0.006855,-0.000812,3,0,0,0,0,0,0
1.006837336,0.209086561,-1.807198,-0.00664,0.003755,0,3,988796,9.88,73,73,73,30.089393,0.158347,0.011922,-0.029268,-0.009287,0.001118,3,0,0,0,0,0,0
1.006837336,0.209086561,-1.839512,-0.000531,0.003907,0,3,988816,9.9,73,73,73,30.149388,0.159099,0.011995,-0.029294,-0.005382,0.001369,3,0,0,0,0,0,0
1.006837336,0.209086561,-1.820363,-0.002822,-0.000063,0,3,988837,9.921,73,73,73,30.209384,0.159846,0.012048,-0.029279,-0.003874,0.000752,3,0,0,0,0,0,0
1.006837336,0.209086561,-1.801214,-0.005724,0.004671,0,3,988856,9.94,73,73,73,30.269379,0.16058,0.012069,-0.029273,-0.004909,0.001147,3,0,0,0,0,0,0
1.006837336,0.209086561,-1.838316,-0.007709,-0.000674,0,3,988876,9.96,73,73,73,30.329374,0.161339,0.012138,-0.029303,-0.00642,0.000103,3,0,0,0,0,0,0
1.006837336,0.209086561,-1.782065,-0.002975,0.003755,0,3,988896,9.98,73,73,73,30.38937,0.162066,0.012136,-0.029349,-0.006193,0.000662,3,0,0,0,0,0,0
1.006837336,0.209086561,-1.79523,-0.003433,0.003449,0,3,988916,10,73,73,73,30.449365,0.162819,0.012184,-0.029378,-0.007632,-0.000533,3,0,0,0,0,0,0
1.006837336,0.209086561,-1.808395,-0.005418,-0.000674,0,3,988937,10.021,73,73,73,30.509361,0.163555,0.012196,-0.029404,-0.006418,0.000691,3,0,0,0,0,0,0
1.006837336,0.209086561,-1.835922,-0.001753,-0.002201,0,3,988956,10.04,73,73,73,30.569356,0.164295,0.01221,-0.029436,-0.006191,0.001082,3,0,0,0,0,0,0
1.006837336,0.209086561,-1.820363,-0.006793,0.00406,0,3,988976,10.06,73,73,73,30.629352,0.165035,0.012224,-0.029466,-0.008303,0.001172,3,0,0,0,0,0,0
1.006837336,0.209086561,-1.806001,-0.005113,0.000548,0,3,988996,10.08,73,73,73,30.689347,0.1658,0.012285,-0.029506,-0.008773,0.001034,3,0,0,0,0,0,0
1.006837336,0.209086561,-1.797624,-0.002669,0.003602,0,3,989016,10.1,73,73,73,30.749342,0.166555,0.012319,-0.029547,-0.00658,-0.000904,3,0,0,0,0,0,0
1.006837336,0.209086561,-1.820363,-0.002364,-0.00159,0,3,989037,10.121,73,73,73,30.809337,0.167294,0.012322,-0.029567,-0.00656,0.002074,3,0,0,0,0,0,0
1.006837336,0.209086561,-1.803608,-0.001447,0.002991,0,3,989056,10.14,73,73,73,30.869333,0.168059,0.012369,-0.029594,-0.007449,0.000973,3,0,0,0,0,0,0
1.006837336,0.209086561,-1.766506,-0.00328,0.001311,0,3,989076,10.16,73,73,73,30.929328,0.168827,0.01242,-0.029621,-0.007742,0.001013,3,0,0,0,0,0,0
1.006837336,0.209086561,-1.828741,-0.002364,0.006198,0,3,989096,10.18,73,73,73,30.989323,0.169592,0.012459,-0.029645,-0.006097,0.001932,3,0,0,0,0,0,0
1.006837336,0.209086561,-1.828741,-0.005265,0.002075,0,3,989116,10.2,73,73,73,31.049318,0.170382,0.012542,-0.029714,-0.009249,0.001044,3,0,0,0,0,0,0
1.006837336,0.209086561,-1.823954,-0.000989,0.003602,0,3,989137,10.221,73,73,73,31.109313,0.171159,0.012588,-0.029782,-0.009012,0.000295,3,0,0,0,0,0,0
1.006837336,0.209086561,-1.829938,-0.005265,0.000242,0,3,989156,10.24,73,73,73,31.169308,0.171932,0.012625,-0.029809,-0.0078,-0.00128,3,0,0,0,0,0,0
1.006837336,0.209086561,-1.822757,-0.00496,-0.002201,0,3,989176,10.26,73,73,73,31.229303,0.172672,0.01259,-0.029887,-0.010717,0.000808,3,0,0,0,0,0,0
1.006837336,0.209086561,-1.797624,-0.009694,-0.002354,0,3,989196,10.28,73,73,73,31.289298,0.173431,0.012596,-0.029986,-0.011818,-0.000768,3,0,0,0,0,0,0
1.006837336,0.209086561,-1.815576,-0.005265,0.000395,0,3,989216,10.3,73,73,73,31.349294,0.174179,0.012584,-0.030072,-0.009424,0.000155,3,0,0,0,0,0,0
1.006837336,0.209086561,-1.82156,-0.00496,0.003907,0,3,989236,10.32,73,73,73,31.409289,0.174938,0.01259,-0.030126,-0.008234,0.001196,3,0,0,0,0,0,0
1.006837336,0.209086561,-1.815576,-0.004196,0.0007,0,3,989256,10.34,73,73,73,31.469284,0.175721,0.012644,-0.030176,-0.007954,0.000312,3,0,0,0,0,0,0
1.006837336,0.209086561,-1.79882,-0.002364,0.001311,0,3,989276,10.36,73,73,73,31.529279,0.176493,0.012671,-0.030171,-0.005574,0.000481,3,0,0,0,0,0,0
1.006837336,0.209086561,-1.794033,-0.004807,0.001311,0,3,989296,10.38,73,73,73,31.589274,0.177278,0.01272,-0.030184,-0.007187,0.000549,3,0,0,0,0,0,0
1.006837336,0.209086561,-1.803608,-0.004349,0.003907,0,3,989316,10.4,73,73,73,31.649268,0.178058,0.012752,-0.030232,-0.007816,0.001258,3,0,0,0,0,0,0
1.006837336,0.209086561,-1.79164,-0.006334,-0.000063,0,3,989337,10.421,73,73,73,31.709263,0.178837,0.01278,-0.030288,-0.009096,-0.000036,3,0,0,0,0,0,0
1.006837336,0.209086561,-1.79164,-0.000989,0.004213,0,3,989356,10.44,73,73,73,31.769259,0.179603,0.012778,-0.030334,-0.006272,0.00128,3,0,0,0,0,0,0
1.006837336,0.209086561,-1.811985,-0.006793,0.003755,0,3,989376,10.46,73,73,73,31.829253,0.180411,0.012858,-0.030343,-0.007887,0.001328,3,0,0,0,0,0,0
1.006837336,0.209086561,-1.813182,-0.007556,0.000242,0,3,989396,10.48,73,73,73,31.889248,0.181212,0.012916,-0.030387,-0.009341,0.000172,3,0,0,0,0,0,0
1.006837336,0.209086561,-1.801214,-0.003738,0.002228,0,3,989416,10.5,73,73,73,31.949243,0.182,0.012943,-0.030408,-0.006895,0.000771,3,0,0,0,0,0,0
1.006837336,0.209086561,-1.811985,-0.006182,0.005129,0,3,989436,10.52,73,73,73,31.97924,0.182399,0.012963,-0.030421,-0.007019,0.000621,3,0,0,0,0,0,0
1.006837336,0.209086561,-1.820363,-0.000684,-0.001285,0,3,989456,10.54,73,73,73,32.069232,0.183618,0.013065,-0.030494,-0.006291,-0.000198,3,0,0,0,0,0,0
1.006837336,0.209086561,-1.806001,-0.003891,0.000548,0,3,989476,10.56,73,73,73,32.129226,0.184417,0.013096,-0.030487,-0.006297,0.000316,3,0,0,0,0,0,0
1.006837336,0.209086561,-1.832331,-0.005113,-0.000216,0,3,989496,10.58,73,73,73,32.189221,0.185215,0.01312,-0.030519,-0.007954,0.000004,3,0,0,0,0,0,0
1.006837336,0.209086561,-1.835922,-0.004655,0.002533,0,3,989516,10.6,73,73,73,32.249216,0.185999,0.013114,-0.03058,-0.008426,0.000746,3,0,0,0,0,0,0
1.006837301,0.209086567,-1.814379,-0.002364,0.000242,0,3,989537,10.621,99,99,99,32.30921,0.186809,0.013158,-0.030621,-0.008166,0.000874,3,0,0,0,0,0,0
1.006837301,0.209086567,-1.807198,-0.002058,0.001311,0,3,989556,10.64,99,99,99,32.369205,0.187612,0.013185,-0.030635,-0.006045,0.000421,3,0,0,0,0,0,0
1.006837301,0.209086567,-1.806001,-0.000226,-0.003423,0,3,989576,10.66,99,99,99,32.4292,0.188417,0.013212,-0.03065,-0.005443,-0.000959,3,0,0,0,0,0,0
1.006837301,0.209086567,-1.79523,-0.0016,-0.000216,0,3,989596,10.68,99,99,99,32.489194,0.189211,0.013216,-0.030683,-0.006435,0.000056,3,0,0,0,0,0,0
1.006837301,0.209086567,-1.801214,-0.003738,0.003602,0,3,989616,10.7,99,99,99,32.549189,0.190013,0.013235,-0.030713,-0.007159,0.001166,3,0,0,0,0,0,0
1.006837301,0.209086567,-1.816773,-0.003586,0.00574,0,3,989636,10.72,99,99,99,32.609184,0.190831,0.01328,-0.030748,-0.007119,0.001805,3,0,0,0,0,0,0
1.006837301,0.209086567,-1.800017,-0.002516,0.002075,0,3,989656,10.74,99,99,99,32.669178,0.191662,0.013347,-0.03077,-0.00645,0.000715,3,0,0,0,0,0,0
1.006837301,0.209086567,-1.823954,-0.004196,0.00238,0,3,989676,10.76,99,99,99,32.729172,0.19248,0.01338,-0.030772,-0.006656,0.000783,3,0,0,0,0,0,0
1.006837301,0.209086567,-1.814379,-0.005113,0.002075,0,3,989696,10.78,99,99,99,32.789167,0.193306,0.013426,-0.030802,-0.007853,0.000735,3,0,0,0,0,0,0
1.006837301,0.209086567,-1.811985,0.000232,-0.003423,0,3,989716,10.8,99,99,99,32.849161,0.194126,0.013455,-0.030795,-0.004652,-0.000985,3,0,0,0,0,0,0
1.006837301,0.209086567,-1.806001,-0.002822,0.005129,0,3,989736,10.82,99,99,99,32.909156,0.194928,0.013445,-0.030775,-0.005306,0.001619,3,0,0,0,0,0,0
1.006837301,0.209086567,-1.819166,-0.003738,0.002838,0,3,989756,10.84,99,99,99,32.96915,0.195758,0.013489,-0.030802,-0.00711,0.00087,3,0,0,0,0,0,0
1.006837301,0.209086567,-1.784459,-0.003433,0.006045,0,3,989776,10.86,99,99,99,33.029144,0.196596,0.013545,-0.030827,-0.006799,0.001971,3,0,0,0,0,0,0
1.006837301,0.209086567,-1.816773,-0.001295,0.005129,0,3,989796,10.88,99,99,99,33.089138,0.197446,0.013619,-0.03081,-0.004706,0.001648,3,0,0,0,0,0,0
1.006837301,0.209086567,-1.826347,-0.001906,-0.001285,0,3,989816,10.9,99,99,99,33.149132,0.198294,0.013677,-0.030792,-0.005208,-0.000317,3,0,0,0,0,0,0
1.006837301,0.209086567,-1.827544,-0.005724,0.002533,0,3,989836,10.92,99,99,99,33.209126,0.199116,0.013682,-0.030828,-0.008284,0.000822,3,0,0,0,0,0,0
1.006837301,0.209086567,-1.813182,-0.000989,0.000089,0,3,989856,10.94,99,99,99,33.269121,0.199948,0.013703,-0.030862,-0.00619,0.000034,3,0,0,0,0,0,0
1.006837301,0.209086567,-1.811985,0.00008,0.000548,0,3,989876,10.96,99,99,99,33.329115,0.200777,0.013716,-0.030878,-0.005191,0.000226,3,0,0,0,0,0,0
1.006837301,0.209086567,-1.809592,-0.004044,0.000853,0,3,989896,10.98,99,99,99,33.389109,0.201626,0.013769,-0.030913,-0.007577,0.000453,3,0,0,0,0,0,0
1.006837301,0.209086567,-1.788049,-0.004655,0.001311,0,3,989916,11,99,99,99,33.449103,0.202475,0.013813,-0.030948,-0.007852,0.000536,3,0,0,0,0,0,0
1.006837301,0.209086567,-1.807198,-0.003738,-0.001285,0,3,989936,11.02,99,99,99,33.509097,0.203303,0.013811,-0.030992,-0.007768,-0.000445,3,0,0,0,0,0,0
1.006837301,0.209086567,-1.786852,-0.007098,0.000089,0,3,989956,11.04,99,99,99,33.569092,0.204124,0.013797,-0.031024,-0.008892,0.000019,3,0,0,0,0,0,0
1.006837301,0.209086567,-1.811985,-0.006334,0.001769,0,3,989976,11.06,99,99,99,33.629086,0.204971,0.013834,-0.031113,-0.010074,0.000689,3,0,0,0,0,0,0
1.006837301,0.209086567,-1.819166,-0.003586,0.003755,0,3,989996,11.08,99,99,99,33.68908,0.205822,0.013876,-0.03116,-0.00762,0.001239,3,0,0,0,0,0,0
1.006837301,0.209086567,-1.803608,-0.000989,0.000548,0,3,990016,11.1,99,99,99,33.749073,0.206678,0.013922,-0.031151,-0.005047,0.000228,3,0,0,0,0,0,0
1.006837301,0.209086567,-1.820363,-0.00496,0.002075,0,3,990037,11.121,99,99,99,33.809067,0.207524,0.013944,-0.031127,-0.006468,0.000232,3,0,0,0,0,0,0
1.006837301,0.209086567,-1.79164,-0.006487,0.004671,0,3,990056,11.14,99,99,99,33.869061,0.208372,0.013966,-0.031181,-0.009049,0.001484,3,0,0,0,0,0,0
1.006837301,0.209086567,-1.822757,-0.005113,0.00574,0,3,990076,11.16,99,99,99,33.929055,0.209237,0.014018,-0.031247,-0.008755,0.001794,3,0,0,0,0,0,0
1.006837301,0.209086567,-1.810789,-0.004349,0.002686,0,3,990096,11.18,99,99,99,33.989049,0.210122,0.014103,-0.031292,-0.007967,0.000976,3,0,0,0,0,0,0
1.006837301,0.209086567,-1.794033,-0.005876,0.002991,0,3,990116,11.2,99,99,99,34.049042,0.210995,0.014155,-0.031376,-0.009729,0.001021,3,0,0,0,0,0,0
1.006837301,0.209086567,-1.809592,-0.000073,0.005435,0,3,990137,11.221,99,99,99,34.109036,0.21186,0.014186,-0.031443,-0.008015,0.001024,3,0,0,0,0,0,0
1.006837301,0.209086567,-1.788049,-0.005571,0.003907,0,3,990156,11.24,99,99,99,34.16903,0.212748,0.014258,-0.031458,-0.00766,0.001368,3,0,0,0,0,0,0
1.006837301,0.209086567,-1.82156,-0.002822,0.00238,0,3,990176,11.26,99,99,99,34.229023,0.21362,0.014289,-0.031494,-0.007071,0.000711,3,0,0,0,0,0,0
1.006837301,0.209086567,-1.806001,-0.004807,0.004366,0,3,990196,11.28,99,99,99,34.289017,0.214492,0.014318,-0.031538,-0.008122,0.001365,3,0,0,0,0,0,0
1.006837301,0.209086567,-1.831135,-0.003433,0.000242,0,3,990216,11.3,99,99,99,34.34901,0.215394,0.014403,-0.031604,-0.008299,0.000288,3,0,0,0,0,0,0
1.006837301,0.209086567,-1.826347,-0.006793,0.003755,0,3,990236,11.32,99,99,99,34.409004,0.216284,0.014455,-0.031688,-0.010152,0.001321,3,0,0,0,0,0,0
1.006837301,0.209086567,-1.809592,-0.001906,-0.001285,0,3,990256,11.34,99,99,99,34.468997,0.217168,0.014487,-0.031729,-0.006969,-0.000391,3,0,0,0,0,0,0
1.006837301,0.209086567,-1.808395,-0.005418,-0.000674,0,3,990276,11.36,99,99,99,34.528991,0.218037,0.014486,-0.031767,-0.008465,-0.000161,3,0,0,0,0,0,0
1.006837301,0.209086567,-1.79523,-0.004349,0.00406,0,3,990296,11.38,99,99,99,34.588984,0.21891,0.014495,-0.031804,-0.007767,0.001287,3,0,0,0,0,0,0
1.006837301,0.209086567,-1.810789,-0.002058,-0.000521,0,3,990316,11.4,99,99,99,34.648978,0.219803,0.014539,-0.03181,-0.00609,-0.000109,3,0,0,0,0,0,0
1.006837301,0.209086567,-1.797624,-0.004044,0.001464,0,3,990336,11.42,99,99,99,34.708971,0.220686,0.014561,-0.031836,-0.007426,0.000552,3,0,0,0,0,0,0
1.006837301,0.209086567,-1.807198,-0.00496,-0.000521,0,3,990356,11.44,99,99,99,34.768965,0.221568,0.014578,-0.031848,-0.007556,-0.000143,3,0,0,0,0,0,0
1.006837301,0.209086567,-1.808395,-0.002516,0.002533,0,3,990376,11.46,99,99,99,34.828959,0.222436,0.014564,-0.031841,-0.005799,0.000729,3,0,0,0,0,0,0
1.006837301,0.209086567,-1.822757,-0.006029,0.004976,0,3,990396,11.48,99,99,99,34.888952,0.223335,0.014613,-0.031864,-0.008102,0.00163,3,0,0,0,0,0,0
1.006837301,0.209086567,-1.806001,-0.004502,-0.000216,0,3,990416,11.5,99,99,99,34.948945,0.224234,0.014655,-0.031931,-0.010101,0.000403,3,0,0,0,0,0,0
1.006837301,0.209086567,-1.786852,-0.004044,0.00238,0,3,990437,11.521,99,99,99,35.008939,0.225118,0.014665,-0.031985,-0.00833,0.000632,3,0,0,0,0,0,0
1.006837301,0.209086567,-1.779671,-0.004807,0.000853,0,3,990456,11.54,99,99,99,35.068932,0.226017,0.014702,-0.032029,-0.008324,0.000347,3,0,0,0,0,0,0
1.006837301,0.209086567,-1.809592,-0.004655,-0.00327,0,3,990476,11.56,99,99,99,35.128925,0.226909,0.014721,-0.032096,-0.009074,-0.00094,3,0,0,0,0,0,0
1.006837301,0.209086567,-1.807198,-0.004655,-0.000674,0,3,990496,11.58,99,99,99,35.188919,0.227782,0.014702,-0.032161,-0.008929,-0.000174,3,0,0,0,0,0,0
1.006837301,0.209086567,-1.803608,-0.000989,-0.001285,0,3,990516,11.6,99,99,99,35.248912,0.22867,0.014715,-0.032153,-0.005298,-0.000311,3,0,0,0,0,0,0
1.006837301,0.209086567,-1.809592,-0.004807,-0.004797,0,3,990536,11.62,99,99,99,35.308906,0.229546,0.014702,-0.032186,-0.008302,-0.001463,3,0,0,0,0,0,0
1.006837301,0.209086567,-1.833528,-0.001753,-0.000521,0,3,990556,11.64,99,99,99,35.368899,0.230428,0.014704,-0.032214,-0.006598,0.000012,3,0,0,0,0,0,0
1.006837301,0.209086567,-1.792836,-0.006487,0.007267,0,3,990576,11.66,99,99,99,35.428893,0.231303,0.014689,-0.032261,-0.008931,0.002135,3,0,0,0,0,0,0
1.006837301,0.209086567,-1.796427,-0.004196,-0.003118,0,3,990596,11.68,99,99,99,35.488886,0.232227,0.014772,-0.032309,-0.008388,-0.000821,3,0,0,0,0,0,0
1.006837301,0.209086567,-1.789246,-0.00328,0.004518,0,3,990616,11.7,99,99,99,35.54888,0.233099,0.014744,-0.03235,-0.008832,-0.000823,3,0,0,0,0,0,0
1.006837301,0.209086567,-1.82156,-0.005724,-0.001438,0,3,990637,11.721,99,99,99,35.608873,0.233989,0.014756,-0.032393,-0.008876,-0.000294,3,0,0,0,0,0,0
1.006837301,0.209086567,-1.807198,-0.002669,0.006045,0,3,990656,11.74,99,99,99,35.668867,0.234864,0.014737,-0.032438,-0.007252,0.001786,3,0,0,0,0,0,0
1.006837301,0.209086567,-1.801214,-0.003586,0.00406,0,3,990676,11.76,99,99,99,35.72886,0.235784,0.014805,-0.032491,-0.007975,0.001325,3,0,0,0,0,0,0
1.006837301,0.209086567,-1.79882,-0.003586,-0.000369,0,3,990696,11.78,99,99,99,35.788853,0.236697,0.014853,-0.032555,-0.008466,-0.000047,3,0,0,0,0,0,0
1.006837301,0.209086567,-1.826347,-0.002058,0.001311,0,3,990716,11.8,99,99,99,35.848846,0.237594,0.014864,-0.032584,-0.006763,0.000455,3,0,0,0,0,0,0
1.006837301,0.209086567,-1.825151,-0.002822,0.002228,0,3,990737,11.821,99,99,99,35.908839,0.238508,0.014909,-0.032615,-0.007125,0.000814,3,0,0,0,0,0,0
1.006837301,0.209086567,-1.803608,-0.008778,0.002228,0,3,990756,11.84,99,99,99,35.968832,0.239423,0.01495,-0.032665,-0.010326,0.000756,3,0,0,0,0,0,0
1.006837301,0.209086567,-1.796427,-0.002058,0.005435,0,3,990776,11.86,99,99,99,36.028825,0.240341,0.014991,-0.032703,-0.006834,0.001739,3,0,0,0,0,0,0
1.006837301,0.209086567,-1.813182,-0.000378,0.002228,0,3,990796,11.88,99,99,99,36.088818,0.24128,0.015066,-0.03272,-0.005676,0.000806,3,0,0,0,0,0,0
1.006837301,0.209086567,-1.807198,-0.003891,-0.003118,0,3,990816,11.9,99,99,99,36.14881,0.242206,0.015111,-0.032776,-0.008519,-0.000835,3,0,0,0,0,0,0
1.006837301,0.209086567,-1.804805,-0.00496,-0.000521,0,3,990836,11.92,99,99,99,36.208804,0.243105,0.015096,-0.032862,-0.009752,-0.000126,3,0,0,0,0,0,0
1.006837301,0.209086567,-1.796427,-0.00496,0.002686,0,3,990856,11.94,99,99,99,36.268797,0.244027,0.015128,-0.032939,-0.009381,0.000966,3,0,0,0,0,0,0
1.006837301,0.209086567,-1.827544,-0.006945,0.000548,0,3,990876,11.96,99,99,99,36.32879,0.244943,0.015145,-0.03304,-0.011018,0.000138,3,0,0,0,0,0,0
1.006837301,0.209086567,-1.790443,-0.002975,-0.001132,0,3,990896,11.98,99,99,99,36.388782,0.245871,0.015183,-0.0331,-0.008197,-0.000193,3,0,0,0,0,0,0
1.006837301,0.209086567,-1.838316,-0.000073,0.002991,0,3,990916,12,99,99,99,36.448775,0.246796,0.015213,-0.03311,-0.005382,0.001054,3,0,0,0,0,0,0
1.006837301,0.209086567,-1.79523,-0.003586,0.005129,0,3,990937,12.021,99,99,99,36.508768,0.247725,0.015244,-0.033131,-0.007743,0.001154,3,0,0,0,0,0,0
1.006837301,0.209086567,-1.806001,-0.003127,0.003602,0,3,990956,12.04,99,99,99,36.568761,0.248677,0.015316,-0.033156,-0.007123,0.001271,3,0,0,0,0,0,0
1.006837301,0.209086567,-1.813182,-0.002058,-0.002812,0,3,990976,12.06,99,99,99,36.628753,0.249607,0.015338,-0.033173,-0.00668,-0.000887,3,0,0,0,0,0,0
1.006837301,0.209086567,-1.797624,-0.002975,0.000395,0,3,990996,12.08,99,99,99,36.688747,0.250516,0.015316,-0.03321,-0.00753,0.00013,3,0,0,0,0,0,0
1.006837301,0.209086567,-1.81797,-0.006182,0.002838,0,3,991016,12.1,99,99,99,36.748739,0.251452,0.01535,-0.033283,-0.009846,0.000989,3,0,0,0,0,0,0
1.006837301,0.209086567,-1.813182,-0.004349,-0.000521,0,3,991037,12.121,99,99,99,36.808732,0.252408,0.015418,-0.033312,-0.005882,0.002333,3,0,0,0,0,0,0
1.006837301,0.209086567,-1.774884,-0.003586,0.001464,0,3,991056,12.14,99,99,99,36.868724,0.253366,0.015481,-0.033336,-0.007433,0.000458,3,0,0,0,0,0,0
1.006837301,0.209086567,-1.816773,-0.000989,-0.000216,0,3,991076,12.16,99,99,99,36.928717,0.25431,0.015512,-0.033364,-0.006438,0.000025,3,0,0,0,0,0,0
1.006837301,0.209086567,-1.832331,-0.002364,0.001769,0,3,991096,12.18,99,99,99,36.988709,0.255242,0.015515,-0.033379,-0.006604,0.00055,3,0,0,0,0,0,0
1.006837301,0.209086567,-1.825151,-0.000226,0.00406,0,3,991116,12.2,99,99,99,37.048702,0.256192,0.015552,-0.033388,-0.005388,0.001327,3,0,0,0,0,0,0
1.006837301,0.209086567,-1.81797,-0.006334,0.004518,0,3,991136,12.22,99,99,99,37.078698,0.256675,0.015586,-0.033388,-0.006238,0.000587,3,0,0,0,0,0,0
1.006837301,0.209086567,-1.831135,-0.006945,0.002075,0,3,991156,12.24,99,99,99,37.168686,0.258125,0.015677,-0.033489,-0.01035,0.000792,3,0,0,0,0,0,0
1.006837301,0.209086567,-1.81797,-0.007403,0.006504,0,3,991176,12.26,99,99,99,37.228678,0.259099,0.015743,-0.033589,-0.012927,-0.00006,3,0,0,0,0,0,0
1.006837301,0.209086567,-1.794033,0.000232,0.000395,0,3,991196,12.28,99,99,99,37.288671,0.260068,0.015792,-0.03365,-0.006848,0.000337,3,0,0,0,0,0,0
1.006837301,0.209086567,-1.788049,-0.003586,-0.002507,0,3,991216,12.3,99,99,99,37.348663,0.261026,0.015812,-0.033677,-0.007714,-0.000704,3,0,0,0,0,0,0
1.006837301,0.209086567,-1.79882,-0.0016,0.001617,0,3,991236,12.32,99,99,99,37.408656,0.261965,0.015793,-0.033713,-0.006702,-0.00066,3,0,0,0,0,0,0
1.006837301,0.209086567,-1.82156,-0.003738,0.000853,0,3,991256,12.34,99,99,99,37.468648,0.262909,0.015787,-0.033715,-0.006972,0.000308,3,0,0,0,0,0,0
1.006837301,0.209086567,-1.845496,-0.006182,0.002838,0,3,991276,12.36,99,99,99,37.52864,0.263878,0.015831,-0.033693,-0.0045,0.000644,3,0,0,0,0,0,0
1.006837301,0.209086567,-1.816773,0.000691,0.003449,0,3,991296,12.38,99,99,99,37.588632,0.264848,0.015872,-0.033698,-0.004935,0.001149,3,0,0,0,0,0,0
1.006837301,0.209086567,-1.814379,-0.000073,0.00406,0,3,991316,12.4,99,99,99,37.648624,0.26584,0.015949,-0.033726,-0.007172,0.000368,3,0,0,0,0,0,0
1.006837301,0.209086567,-1.823954,-0.002058,-0.00098,0,3,991336,12.42,99,99,99,37.708616,0.266818,0.015991,-0.033709,-0.005765,-0.000156,3,0,0,0,0,0,0
1.006837301,0.209086567,-1.803608,-0.00328,0.004976,0,3,991356,12.44,99,99,99,37.768608,0.26779,0.016016,-0.033771,-0.00825,0.001629,3,0,0,0,0,0,0
1.006837301,0.209086567,-1.819166,-0.003738,0.003602,0,3,991376,12.46,99,99,99,37.8286,0.268781,0.016074,-0.0338,-0.007599,0.00116,3,0,0,0,0,0,0
1.006837301,0.209086567,-1.814379,-0.005418,0.003755,0,3,991396,12.48,99,99,99,37.888592,0.269763,0.016109,-0.033805,-0.007687,0.001159,3,0,0,0,0,0,0
1.006837301,0.209086567,-1.827544,-0.008014,0.006045,0,3,991416,12.5,99,99,99,37.948584,0.270765,0.016179,-0.033847,-0.009776,0.001991,3,0,0,0,0,0,0
1.006837301,0.209086567,-1.811985,-0.001295,0.001006,0,3,991437,12.521,99,99,99,38.008575,0.271779,0.016263,-0.033897,-0.0074,0.000588,3,0,0,0,0,0,0
1.006837301,0.209086567,-1.79882,-0.001906,0.001158,0,3,991456,12.54,99,99,99,38.068567,0.272768,0.016288,-0.03389,-0.005913,0.000396,3,0,0,0,0,0,0
1.006837301,0.209086567,-1.807198,-0.002975,0.005587,0,3,991476,12.56,99,99,99,38.128559,0.273766,0.01633,-0.033937,-0.007697,0.001824,3,0,0,0,0,0,0
1.006837301,0.209086567,-1.806001,-0.003586,0.00574,0,3,991496,12.58,99,99,99,38.18855,0.274794,0.016423,-0.033973,-0.007668,0.001929,3,0,0,0,0,0,0
1.006837301,0.209086567,-1.81797,-0.006487,0.000853,0,3,991516,12.6,99,99,99,38.248542,0.275807,0.016476,-0.034035,-0.009892,0.000278,3,0,0,0,0,0,0
1.006837301,0.209086567,-1.801214,-0.002669,0.002838,0,3,991536,12.62,99,99,99,38.308533,0.276797,0.016479,-0.034082,-0.007684,0.000848,3,0,0,0,0,0,0
1.006837301,0.209086567,-1.786852,-0.005724,0.003907,0,3,991556,12.64,99,99,99,38.368525,0.277814,0.016535,-0.034113,-0.008606,0.001324,3,0,0,0,0,0,0
1.006837301,0.209086567,-1.816773,-0.005876,0.001464,0,3,991576,12.66,99,99,99,38.428516,0.278833,0.016588,-0.034146,-0.0088,0.000523,3,0,0,0,0,0,0
1.006837301,0.209086567,-1.840709,-0.003891,-0.000521,0,3,991596,12.68,99,99,99,38.488507,0.279856,0.016642,-0.034183,-0.008144,0.000014,3,0,0,0,0,0,0
1.006837301,0.209086567,-1.82156,-0.00328,0.0007,0,3,991616,12.7,99,99,99,38.548499,0.280855,0.016644,-0.034245,-0.008484,0.000229,3,0,0,0,0,0,0
1.006837301,0.209086567,-1.807198,-0.0016,0.000853,0,3,991636,12.72,99,99,99,38.608491,0.281864,0.016664,-0.034249,-0.006138,0.000325,3,0,0,0,0,0,0
1.006837301,0.209086567,-1.813182,-0.003738,0.0007,0,3,991656,12.74,99,99,99,38.668482,0.282894,0.016724,-0.034313,-0.008777,0.00043,3,0,0,0,0,0,0
1.006837301,0.209086567,-1.839512,-0.000226,0.001769,0,3,991676,12.76,99,99,99,38.728473,0.2839,0.016729,-0.034334,-0.005977,0.000518,3,0,0,0,0,0,0
1.006837301,0.209086567,-1.804805,-0.00328,-0.000063,0,3,991696,12.78,99,99,99,38.788465,0.284921,0.016764,-0.034369,-0.00781,0.000075,3,0,0,0,0,0,0
1.006837301,0.209086567,-1.807198,-0.004807,0.001617,0,3,991716,12.8,99,99,99,38.848456,0.285931,0.016771,-0.034386,-0.007921,0.000517,3,0,0,0,0,0,0
1.006837301,0.209086567,-1.81797,-0.005876,0.003297,0,3,991736,12.82,99,99,99,38.908447,0.286947,0.016791,-0.034425,-0.008941,0.001025,3,0,0,0,0,0,0
1.006837301,0.209086567,-1.825151,-0.003586,-0.002812,0,3,991756,12.84,99,99,99,38.968438,0.287995,0.01687,-0.034483,-0.008701,-0.000623,3,0,0,0,0,0,0
1.006837301,0.209086567,-1.804805,-0.0016,0.001006,0,3,991776,12.86,99,99,99,39.02843,0.289006,0.016869,-0.034507,-0.006737,0.000372,3,0,0,0,0,0,0
1.006837301,0.209086567,-1.837119,-0.003738,0.001311,0,3,991796,12.88,99,99,99,39.088421,0.290022,0.016876,-0.034535,-0.007783,0.000391,3,0,0,0,0,0,0
1.006837301,0.209086567,-1.837119,-0.002058,0.000242,0,3,991816,12.9,99,99,99,39.148413,0.291043,0.016894,-0.034574,-0.007384,0.000114,3,0,0,0,0,0,0
1.006837301,0.209086567,-1.792836,-0.00328,-0.000369,0,3,991836,12.92,99,99,99,39.208404,0.292072,0.016924,-0.034591,-0.007357,0.000007,3,0,0,0,0,0,0
1.006837301,0.209086567,-1.794033,-0.004807,0.000089,0,3,991856,12.94,99,99,99,39.268395,0.293089,0.016926,-0.034661,-0.009487,0.000043,3,0,0,0,0,0,0
1.006837301,0.209086567,-1.784459,-0.001295,0.00406,0,3,991876,12.96,99,99,99,39.328386,0.294115,0.016947,-0.034687,-0.006543,0.001317,3,0,0,0,0,0,0
1.006837301,0.209086567,-1.827544,-0.002516,-0.002201,0,3,991896,12.98,99,99,99,39.388377,0.295158,0.017,-0.03472,-0.007568,-0.000581,3,0,0,0,0,0,0
1.006837301,0.209086567,-1.827544,-0.005113,-0.000369,0,3,991916,13,99,99,99,39.448369,0.296168,0.016979,-0.034756,-0.008704,-0.000128,3,0,0,0,0,0,0
1.006837301,0.209086567,-1.810789,-0.006334,0.000242,0,3,991936,13.02,99,99,99,39.50836,0.297187,0.01698,-0.034757,-0.005495,0.00056,3,0,0,0,0,0,0
1.006837301,0.209086567,-1.828741,-0.005113,-0.003423,0,3,991956,13.04,99,99,99,39.568351,0.298215,0.016998,-0.034801,-0.00908,-0.001013,3,0,0,0,0,0,0
1.006837301,0.209086567,-1.786852,-0.008167,0.000089,0,3,991976,13.06,99,99,99,39.628343,0.299231,0.016993,-0.034871,-0.011023,0.000116,3,0,0,0,0,0,0
1.006837301,0.209086567,-1.822757,-0.003433,0.005435,0,3,991996,13.08,99,99,99,39.688334,0.30025,0.016991,-0.034922,-0.008147,0.00163,3,0,0,0,0,0,0
1.006837301,0.209086567,-1.822757,-0.004655,0.00406,0,3,992016,13.1,99,99,99,39.748325,0.301299,0.017047,-0.034997,-0.009473,0.001294,3,0,0,0,0,0,0
1.006837301,0.209086567,-1.79523,-0.00328,-0.000521,0,3,992036,13.12,99,99,99,39.808316,0.30236,0.017122,-0.035024,-0.007685,0.000018,3,0,0,0,0,0,0
1.006837301,0.209086567,-1.826347,0.00176,0.00574,0,3,992056,13.14,99,99,99,39.868307,0.303399,0.017147,-0.035007,-0.003999,0.001844,3,0,0,0,0,0,0
1.006837301,0.209086567,-1.808395,-0.003433,0.001158,0,3,992076,13.16,99,99,99,39.928297,0.304469,0.017227,-0.035015,-0.007177,0.000486,3,0,0,0,0,0,0
1.006837301,0.209086567,-1.79882,-0.002211,0.001617,0,3,992096,13.18,99,99,99,39.988288,0.305519,0.017259,-0.035054,-0.007465,0.000578,3,0,0,0,0,0,0
1.006837301,0.209086567,-1.809592,0.000691,0.003449,0,3,992116,13.2,99,99,99,40.048278,0.30658,0.01731,-0.035046,-0.004823,0.001197,3,0,0,0,0,0,0
1.006837263,0.209086593,-1.816773,-0.000684,-0.000521,0,3,992137,13.221,125,125,125,40.108269,0.30763,0.017331,-0.035074,-0.010206,0.002114,3,0,0,0,0,0,0
1.006837263,0.209086593,-1.809592,-0.003586,0.001769,0,3,992156,13.24,125,125,125,14.743118,3.609491,3.546537,-0.035086,-0.007286,0.000586,2.983489,0,0,0,0,0,0
1.006837263,0.209086593,-1.803608,-0.007862,0.001769,0,3,992176,13.26,125,125,125,14.688186,3.585931,3.546562,-0.035101,-0.009348,0.000576,2.997591,0,0,0,0,0,0
1.006837263,0.209086593,-1.815576,0.001301,0.004213,0,3,992196,13.28,125,125,125,14.63307,3.562304,3.546564,-0.035109,-0.004949,0.00123,2.999649,0,0,0,0,0,0
1.006837263,0.209086593,-1.782065,-0.002975,-0.000827,0,3,992216,13.3,125,125,125,14.577937,3.538643,3.546613,-0.035128,-0.007384,-0.000172,2.999949,0,0,0,0,0,0
1.006837263,0.209086593,-1.825151,-0.003433,0.002075,0,3,992236,13.32,125,125,125,14.522804,3.514973,3.546674,-0.035136,-0.007169,0.000901,2.999993,0,0,0,0,0,0
1.006837263,0.209086593,-1.803608,-0.005876,0.003297,0,3,992256,13.34,125,125,125,14.467665,3.491316,3.546698,-0.035161,-0.008662,0.001004,2.999999,0,0,0,0,0,0
1.006837263,0.209086593,-1.816773,-0.004349,0.002533,0,3,992276,13.36,125,125,125,14.41253,3.46765,3.546738,-0.035178,-0.007802,0.000829,3,0,0,0,0,0,0
1.006837263,0.209086593,-1.811985,0.000843,0.002686,0,3,992296,13.38,125,125,125,14.357402,3.443966,3.546813,-0.035173,-0.004878,0.001037,3,0,0,0,0,0,0
1.006837263,0.209086593,-1.834725,-0.0016,0.003297,0,3,992316,13.4,125,125,125,14.302273,3.420284,3.546875,-0.03518,-0.006292,0.001149,3,0,0,0,0,0,0
1.006837263,0.209086593,-1.833528,-0.006793,0.0007,0,3,992337,13.421,125,125,125,14.247147,3.396596,3.546942,-0.035217,-0.007995,0.000232,3,0,0,0,0,0,0
1.006837263,0.209086593,-1.801214,-0.003891,0.001464,0,3,992356,13.44,125,125,125,14.192012,3.37293,3.546954,-0.03527,-0.008632,0.000475,3,0,0,0,0,0,0
1.006837263,0.209086593,-1.820363,-0.001142,0.004518,0,3,992376,13.46,125,125,125,14.136886,3.349241,3.547013,-0.035308,-0.006903,0.001567,3,0,0,0,0,0,0
1.006837263,0.209086593,-1.815576,-0.005418,0.001464,0,3,992396,13.48,125,125,125,14.081759,3.325557,3.547055,-0.035332,-0.008527,0.000454,3,0,0,0,0,0,0
1.006837263,0.209086593,-1.823954,-0.005724,0.00238,0,3,992416,13.5,125,125,125,14.026631,3.301873,3.547093,-0.035365,-0.008898,0.00083,3,0,0,0,0,0,0
1.006837263,0.209086593,-1.815576,-0.006029,-0.00159,0,3,992437,13.521,125,125,125,13.971506,3.278181,3.547142,-0.035394,-0.008957,-0.001237,3,0,0,0,0,0,0
1.006837263,0.209086593,-1.807198,-0.004502,-0.001896,0,3,992456,13.54,125,125,125,13.916364,3.254532,3.547095,-0.035446,-0.009065,-0.000628,3,0,0,0,0,0,0
1.006837263,0.209086593,-1.809592,-0.004044,0.001311,0,3,992476,13.56,125,125,125,13.861226,3.230872,3.547077,-0.0355,-0.00877,0.000396,3,0,0,0,0,0,0
1.006837263,0.209086593,-1.815576,-0.001447,0.00406,0,3,992496,13.58,125,125,125,13.80609,3.207205,3.547073,-0.035487,-0.005666,0.001179,3,0,0,0,0,0,0
1.006837263,0.209086593,-1.807198,-0.000989,-0.000063,0,3,992516,13.6,125,125,125,13.750964,3.183518,3.547115,-0.035467,-0.00543,0.000034,3,0,0,0,0,0,0
1.006837263,0.209086593,-1.797624,-0.003433,0.001464,0,3,992537,13.621,125,125,125,13.695839,3.159828,3.547158,-0.035454,-0.0061,0.000668,3,0,0,0,0,0,0
1.006837263,0.209086593,-1.784459,-0.001142,0.004213,0,3,992556,13.64,125,125,125,13.640712,3.136141,3.547189,-0.035451,-0.00579,0.001335,3,0,0,0,0,0,0
1.006837263,0.209086593,-1.803608,-0.001753,0.0007,0,3,992576,13.66,125,125,125,13.585587,3.112453,3.547219,-0.03549,-0.007772,0.001818,3,0,0,0,0,0,0
1.006837263,0.209086593,-1.810789,0.001301,0.001006,0,3,992596,13.68,125,125,125,13.530467,3.088749,3.547277,-0.035493,-0.006828,0.000492,3,0,0,0,0,0,0
1.006837263,0.209086593,-1.814379,-0.002058,0.001769,0,3,992616,13.7,125,125,125,13.475342,3.06506,3.547299,-0.035434,-0.003035,0.000212,3,0,0,0,0,0,0
1.006837263,0.209086593,-1.796427,-0.001447,0.002838,0,3,992636,13.72,125,125,125,13.447778,3.053218,3.547304,-0.035418,-0.004925,0.000562,3,0,0,0,0,0,0
1.006837263,0.209086593,-1.806001,-0.002364,0.001464,0,3,992656,13.74,125,125,125,13.365097,3.017667,3.547367,-0.035389,-0.006203,0.000319,3,0,0,0,0,0,0
1.006837263,0.209086593,-1.792836,-0.005571,0.002228,0,3,992676,13.76,125,125,125,13.309973,2.993973,3.547388,-0.035404,-0.008355,0.000728,3,0,0,0,0,0,0
1.006837263,0.209086593,-1.815576,-0.000989,0.005893,0,3,992696,13.78,125,125,125,13.254856,2.970265,3.547439,-0.035426,-0.007412,0.000582,3,0,0,0,0,0,0
1.006837263,0.209086593,-1.803608,-0.006182,0.003297,0,3,992716,13.8,125,125,125,13.199743,2.946548,3.547502,-0.035436,-0.008173,0.000687,3,0,0,0,0,0,0
1.006837263,0.209086593,-1.807198,-0.00496,0.003755,0,3,992736,13.82,125,125,125,13.172184,2.934694,3.547519,-0.035465,-0.009406,0.001073,3,0,0,0,0,0,0
1.006837263,0.209086593,-1.815576,0.001607,0.001006,0,3,992756,13.84,125,125,125,13.089517,2.899111,3.547612,-0.035557,-0.010507,0.001365,3,0,0,0,0,0,0
1.006837263,0.209086593,-1.811985,-0.002822,-0.002201,0,3,992776,13.86,125,125,125,13.034404,2.875391,3.547659,-0.035549,-0.006785,0.000634,3,0,0,0,0,0,0
1.006837263,0.209086593,-1.823954,-0.002516,-0.001896,0,3,992796,13.88,125,125,125,12.979284,2.851691,3.54766,-0.035561,-0.007662,0.000248,3,0,0,0,0,0,0
1.006837263,0.209086593,-1.833528,-0.000073,-0.000216,0,3,992816,13.9,125,125,125,12.924161,2.827994,3.547653,-0.035568,-0.006793,0.001407,3,0,0,0,0,0,0
1.006837263,0.209086593,-1.806001,-0.004044,0.004976,0,3,992837,13.921,125,125,125,12.869048,2.804276,3.547691,-0.035558,-0.006887,0.001518,3,0,0,0,0,0,0
1.006837263,0.209086593,-1.825151,-0.00832,0.001006,0,3,992856,13.94,125,125,125,12.813945,2.780536,3.547773,-0.035533,-0.003028,0.000491,3,0,0,0,0,0,0
1.006837263,0.209086593,-1.826347,-0.002669,0.004213,0,3,992876,13.96,125,125,125,12.758831,2.756819,3.547795,-0.035578,-0.008972,-0.000205,3,0,0,0,0,0,0
1.006837263,0.209086593,-1.820363,-0.004807,0.000853,0,3,992896,13.98,125,125,125,12.703719,2.733099,3.547822,-0.035603,-0.008021,0.00201,3,0,0,0,0,0,0
1.006837263,0.209086593,-1.800017,-0.004196,0.000395,0,3,992916,14,125,125,125,12.648615,2.70936,3.547886,-0.035628,-0.006975,0.000962,3,0,0,0,0,0,0
1.006837263,0.209086593,-1.809592,-0.001295,0.004976,0,3,992937,14.021,125,125,125,12.593505,2.685633,3.547917,-0.035657,-0.008286,0.000657,3,0,0,0,0,0,0
1.006837263,0.209086593,-1.81797,-0.003433,0.00406,0,3,992956,14.04,125,125,125,12.538402,2.661892,3.547974,-0.035661,-0.007064,0.001398,3,0,0,0,0,0,0
1.006837263,0.209086593,-1.819166,-0.002669,0.002991,0,3,992976,14.06,125,125,125,12.483295,2.638161,3.548003,-0.03568,-0.007172,0.000882,3,0,0,0,0,0,0
1.006837263,0.209086593,-1.81797,-0.004196,0.003144,0,3,992996,14.08,125,125,125,12.428189,2.614426,3.548035,-0.035655,-0.006606,0.000992,3,0,0,0,0,0,0
1.006837263,0.209086593,-1.797624,-0.006029,0.001922,0,3,993016,14.1,125,125,125,12.373085,2.590687,3.548075,-0.035669,-0.008579,0.000643,3,0,0,0,0,0,0
1.006837263,0.209086593,-1.797624,-0.002211,-0.000827,0,3,993036,14.12,125,125,125,12.31798,2.566951,3.548104,-0.03567,-0.006644,-0.000193,3,0,0,0,0,0,0
1.006837263,0.209086593,-1.79164,-0.004807,0.001464,0,3,993056,14.14,125,125,125,12.262871,2.543221,3.548114,-0.035694,-0.008317,0.000512,3,0,0,0,0,0,0
1.006837263,0.209086593,-1.785655,-0.002975,-0.001743,0,3,993076,14.16,125,125,125,12.207765,2.519488,3.548132,-0.035705,-0.00729,-0.0005,3,0,0,0,0,0,0
1.006837263,0.209086593,-1.790443,-0.006793,0.002838,0,3,993096,14.18,125,125,125,12.152654,2.495765,3.548127,-0.03574,-0.009462,0.000894,3,0,0,0,0,0,0
1.006837263,0.209086593,-1.796427,-0.006029,0.002533,0,3,993116,14.2,125,125,125,12.097554,2.472015,3.548177,-0.035817,-0.010319,0.000882,3,0,0,0,0,0,0
1.006837263,0.209086593,-1.827544,-0.006945,0.002838,0,3,993136,14.22,125,125,125,12.042458,2.448258,3.54824,-0.035858,-0.009715,0.001026,3,0,0,0,0,0,0
1.006837263,0.209086593,-1.835922,-0.003738,0.002533,0,3,993156,14.24,125,125,125,11.987365,2.424492,3.548312,-0.035899,-0.008318,0.000957,3,0,0,0,0,0,0
1.006837263,0.209086593,-1.779671,-0.002058,0.000242,0,3,993176,14.26,125,125,125,11.93227,2.400733,3.548362,-0.035912,-0.00687,0.000187,3,0,0,0,0,0,0
1.006837263,0.209086593,-1.811985,-0.003433,-0.000063,0,3,993196,14.28,125,125,125,11.877174,2.376975,3.548404,-0.035932,-0.007723,0.000139,3,0,0,0,0,0,0
1.006837263,0.209086593,-1.806001,-0.006029,0.004213,0,3,993216,14.3,125,125,125,11.822079,2.353216,3.548442,-0.035969,-0.009166,0.001418,3,0,0,0,0,0,0
1.006837263,0.209086593,-1.815576,-0.003586,0.001006,0,3,993236,14.32,125,125,125,11.766984,2.329454,3.548481,-0.035995,-0.007913,0.000321,3,0,0,0,0,0,0
1.006837263,0.209086593,-1.804805,-0.002516,-0.002507,0,3,993256,14.34,125,125,125,11.711891,2.30569,3.548523,-0.036035,-0.007961,-0.000611,3,0,0,0,0,0,0
1.006837263,0.209086593,-1.804805,-0.002822,0.0007,0,3,993276,14.36,125,125,125,11.656793,2.281938,3.548533,-0.036049,-0.007234,0.000322,3,0,0,0,0,0,0
1.006837263,0.209086593,-1.81797,-0.002822,0.001769,0,3,993296,14.38,125,125,125,11.601697,2.25818,3.548556,-0.036048,-0.006819,0.000602,3,0,0,0,0,0,0
1.006837263,0.209086593,-1.79882,-0.005418,0.003755,0,3,993316,14.4,125,125,125,11.546602,2.23442,3.548576,-0.036053,-0.008032,0.001159,3,0,0,0,0,0,0
1.006837263,0.209086593,-1.804805,-0.000837,0.002991,0,3,993336,14.42,125,125,125,11.491507,2.210659,3.548599,-0.036056,-0.005959,0.000885,3,0,0,0,0,0,0
1.006837263,0.209086593,-1.794033,-0.002058,0.002228,0,3,993356,14.44,125,125,125,11.436412,2.186899,3.548615,-0.036097,-0.00759,0.000651,3,0,0,0,0,0,0
1.006837263,0.209086593,-1.816773,-0.001447,0.001311,0,3,993376,14.46,125,125,125,11.381322,2.163128,3.548654,-0.03612,-0.006855,0.000498,3,0,0,0,0,0,0
1.006837263,0.209086593,-1.782065,-0.006334,0.00238,0,3,993396,14.48,125,125,125,11.326233,2.139353,3.548698,-0.036104,-0.00796,0.000847,3,0,0,0,0,0,0
1.006837263,0.209086593,-1.828741,-0.004502,0.003449,0,3,993416,14.5,125,125,125,11.271144,2.11558,3.548731,-0.036138,-0.008456,0.001095,3,0,0,0,0,0,0
1.006837263,0.209086593,-1.790443,-0.005113,-0.000216,0,3,993437,14.521,125,125,125,11.216053,2.09181,3.548755,-0.036159,-0.007674,0.001031,3,0,0,0,0,0,0
1.006837263,0.209086593,-1.815576,-0.003586,0.003602,0,3,993456,14.54,125,125,125,11.160964,2.068036,3.548783,-0.036193,-0.008026,0.001101,3,0,0,0,0,0,0
1.006837263,0.209086593,-1.808395,-0.004502,0.006656,0,3,993476,14.56,125,125,125,11.105876,2.04426,3.548812,-0.036265,-0.00939,0.002025,3,0,0,0,0,0,0
1.006837263,0.209086593,-1.837119,-0.004655,0.000853,0,3,993496,14.58,125,125,125,11.050798,2.020462,3.548885,-0.036297,-0.008602,0.000348,3,0,0,0,0,0,0
1.006837263,0.209086593,-1.811985,-0.004807,0.002228,0,3,993516,14.6,125,125,125,10.995714,1.996676,3.548924,-0.03632,-0.008372,0.000803,3,0,0,0,0,0,0
1.006837263,0.209086593,-1.814379,0.00176,0.001006,0,3,993537,14.621,125,125,125,10.940625,1.972901,3.548935,-0.036382,-0.010094,-0.000146,3,0,0,0,0,0,0
1.006837263,0.209086593,-1.808395,-0.003891,0.000242,0,3,993556,14.64,125,125,125,10.885535,1.949129,3.548939,-0.03637,-0.007072,0.00011,3,0,0,0,0,0,0
1.006837263,0.209086593,-1.81797,-0.001447,0.002838,0,3,993576,14.66,125,125,125,10.830446,1.925356,3.548945,-0.036403,-0.007146,0.000881,3,0,0,0,0,0,0
1.006837263,0.209086593,-1.808395,-0.004349,0.002075,0,3,993596,14.68,125,125,125,10.775362,1.90157,3.548976,-0.036433,-0.008365,0.000666,3,0,0,0,0,0,0
1.006837263,0.209086593,-1.801214,-0.002516,0.002838,0,3,993616,14.7,125,125,125,10.720276,1.87779,3.548992,-0.036433,-0.006682,0.000861,3,0,0,0,0,0,0
1.006837263,0.209086593,-1.811985,-0.005418,0.000395,0,3,993636,14.72,125,125,125,10.665198,1.85399,3.549049,-0.036439,-0.008289,0.000263,3,0,0,0,0,0,0
1.006837263,0.209086593,-1.810789,-0.000531,0.001617,0,3,993656,14.74,125,125,125,10.610111,1.830212,3.549052,-0.036475,-0.006851,0.000486,3,0,0,0,0,0,0
1.006837263,0.209086593,-1.807198,-0.005418,0.000853,0,3,993676,14.76,125,125,125,10.555027,1.806425,3.549074,-0.036526,-0.009498,0.000302,3,0,0,0,0,0,0
1.006837263,0.209086593,-1.79164,-0.004044,0.002838,0,3,993696,14.78,125,125,125,10.499941,1.782645,3.549079,-0.036565,-0.008473,0.000852,3,0,0,0,0,0,0
1.006837263,0.209086593,-1.82156,-0.000837,0.001464,0,3,993716,14.8,125,125,125,10.444853,1.758868,3.549074,-0.036593,-0.0068,0.000344,3,0,0,0,0,0,0
1.006837263,0.209086593,-1.815576,-0.002058,-0.00159,0,3,993736,14.82,125,125,125,10.389773,1.735074,3.549108,-0.036633,-0.008991,0.000922,3,0,0,0,0,0,0
1.006837263,0.209086593,-1.815576,-0.001753,0.000395,0,3,993756,14.84,125,125,125,10.334689,1.711287,3.549123,-0.036635,-0.006533,0.000088,3,0,0,0,0,0,0
1.006837263,0.209086593,-1.79523,-0.003891,0.003449,0,3,993776,14.86,125,125,125,10.279609,1.687493,3.549152,-0.036641,-0.007512,0.001159,3,0,0,0,0,0,0
1.006837263,0.209086593,-1.809592,-0.004655,0.001006,0,3,993796,14.88,125,125,125,10.224536,1.663682,3.549213,-0.036705,-0.00953,0.000439,3,0,0,0,0,0,0
1.006837263,0.209086593,-1.81797,-0.003433,0.00574,0,3,993816,14.9,125,125,125,10.169461,1.639876,3.549257,-0.03672,-0.007449,0.001875,3,0,0,0,0,0,0
1.006837263,0.209086593,-1.788049,-0.002058,0.00238,0,3,993836,14.92,125,125,125,10.141929,1.62796,3.549306,-0.036726,-0.007302,0.001338,3,0,0,0,0,0,0
1.006837263,0.209086593,-1.806001,-0.002822,0.003449,0,3,993856,14.94,125,125,125,10.059322,1.592236,3.549384,-0.036738,-0.008492,0.000902,3,0,0,0,0,0,0
1.006837263,0.209086593,-1.822757,-0.003586,0.00238,0,3,993876,14.96,125,125,125,10.004253,1.568417,3.549436,-0.036762,-0.008471,0.000246,3,0,0,0,0,0,0
1.006837263,0.209086593,-1.801214,0.002829,0.003907,0,3,993896,14.98,125,125,125,9.94918,1.544607,3.549462,-0.036787,-0.008258,0.000113,3,0,0,0,0,0,0
1.006837263,0.209086593,-1.807198,-0.001295,0.001464,0,3,993916,15,125,125,125,9.894108,1.520792,3.549496,-0.036738,-0.004941,-0.000671,3,0,0,0,0,0,0
1.006837263,0.209086593,-1.800017,-0.00496,0.003449,0,3,993937,15.021,125,125,125,9.839029,1.496995,3.549488,-0.03673,-0.00759,0.001086,3,0,0,0,0,0,0
1.006837263,0.209086593,-1.819166,-0.00832,0.001311,0,3,993956,15.04,125,125,125,9.783963,1.473167,3.549546,-0.036778,-0.009693,0.001677,3,0,0,0,0,0,0
1.006837263,0.209086593,-1.814379,-0.000989,0.001922,0,3,993976,15.06,125,125,125,9.728899,1.449336,3.549604,-0.03683,-0.00725,0.001391,3,0,0,0,0,0,0
1.006837263,0.209086593,-1.804805,-0.002211,0.004366,0,3,993996,15.08,125,125,125,9.673836,1.425503,3.549659,-0.036817,-0.006198,0.001403,3,0,0,0,0,0,0
1.006837263,0.209086593,-1.803608,-0.002669,-0.000521,0,3,994016,15.1,125,125,125,9.618775,1.401664,3.549719,-0.036826,-0.007219,-0.000054,3,0,0,0,0,0,0
1.006837263,0.209086593,-1.81797,-0.002669,0.000853,0,3,994036,15.12,125,125,125,9.591238,1.389758,3.549717,-0.036817,-0.005803,0.001552,3,0,0,0,0,0,0
1.006837263,0.209086593,-1.827544,-0.005265,-0.001438,0,3,994056,15.14,125,125,125,9.508643,1.354009,3.549776,-0.036824,-0.007693,0.002003,3,0,0,0,0,0,0
1.006837263,0.209086593,-1.819166,0.000843,0.000853,0,3,994076,15.16,125,125,125,9.453582,1.33017,3.549822,-0.036884,-0.010848,0.000056,3,0,0,0,0,0,0
1.006837263,0.209086593,-1.803608,-0.006182,0.001769,0,3,994096,15.18,125,125,125,9.398514,1.306347,3.549831,-0.036894,-0.008626,-0.00017,3,0,0,0,0,0,0
1.006837263,0.209086593,-1.790443,-0.002669,0.004518,0,3,994116,15.2,125,125,125,9.343447,1.282523,3.54984,-0.03692,-0.006648,0.0006,3,0,0,0,0,0,0
1.006837263,0.209086593,-1.837119,-0.001906,0.000548,0,3,994137,15.221,125,125,125,9.288388,1.258679,3.549892,-0.03689,-0.003935,0.000234,3,0,0,0,0,0,0
1.006837263,0.209086593,-1.79882,-0.005571,0.003602,0,3,994156,15.24,125,125,125,9.233323,1.234851,3.549903,-0.036882,-0.007673,0.000744,3,0,0,0,0,0,0
1.006837263,0.209086593,-1.792836,-0.006029,0.002533,0,3,994176,15.26,125,125,125,9.178265,1.211004,3.549953,-0.036897,-0.006088,0.00159,3,0,0,0,0,0,0
1.006837263,0.209086593,-1.79523,-0.002211,0.003602,0,3,994196,15.28,125,125,125,9.123212,1.187147,3.550018,-0.036944,-0.009611,0.000639,3,0,0,0,0,0,0
1.006837263,0.209086593,-1.792836,-0.003433,0.002838,0,3,994216,15.3,125,125,125,9.068156,1.163296,3.550064,-0.036955,-0.007198,0.000803,3,0,0,0,0,0,0
1.006837263,0.209086593,-1.800017,-0.004044,0.007573,0,3,994236,15.32,125,125,125,9.013102,1.139442,3.550109,-0.036973,-0.007766,0.002393,3,0,0,0,0,0,0
1.006837263,0.209086593,-1.808395,-0.00496,0.003449,0,3,994256,15.34,125,125,125,8.958053,1.115574,3.550178,-0.03698,-0.006998,0.000203,3,0,0,0,0,0,0
1.006837263,0.209086593,-1.810789,-0.005265,-0.002659,0,3,994276,15.36,125,125,125,8.902999,1.091721,3.550211,-0.037018,-0.009199,0.00116,3,0,0,0,0,0,0
1.006837263,0.209086593,-1.794033,-0.005418,0.001158,0,3,994296,15.38,125,125,125,8.847941,1.067874,3.550223,-0.037061,-0.008551,0.001025,3,0,0,0,0,0,0
1.006837263,0.209086593,-1.813182,0.000691,0.000395,0,3,994316,15.4,125,125,125,8.792889,1.044014,3.550262,-0.037074,-0.005812,0.000179,3,0,0,0,0,0,0
1.006837237,0.209086654,-1.82156,-0.006793,-0.000674,0,3,994336,15.42,147,147,147,2.819889,3.824896,-1.082574,-0.037101,-0.009919,-0.000726,3.007372,0,0,0,0,0,0
1.006837237,0.209086654,-1.814379,-0.00328,0.001311,0,3,994356,15.44,147,147,147,2.848079,3.771815,-1.082575,-0.037135,-0.009236,0.000521,3.001076,0,0,0,0,0,0
1.006837237,0.209086654,-1.790443,-0.005113,-0.000827,0,3,994376,15.46,147,147,147,2.876241,3.718818,-1.08255,-0.037166,-0.008962,-0.001025,3.000157,0,0,0,0,0,0
1.006837237,0.209086654,-1.79164,-0.000837,0.003449,0,3,994396,15.48,147,147,147,2.90437,3.665818,-1.082585,-0.037211,-0.00918,0.001104,3.000023,0,0,0,0,0,0
1.006837237,0.209086654,-1.773687,-0.0016,0.00238,0,3,994416,15.5,147,147,147,2.93254,3.612842,-1.082527,-0.037228,-0.00864,0.001538,3.000003,0,0,0,0,0,0
1.006837237,0.209086654,-1.788049,-0.006334,0.001922,0,3,994436,15.52,147,147,147,2.960714,3.559868,-1.082464,-0.037252,-0.009244,0.000679,3,0,0,0,0,0,0
1.006837237,0.209086654,-1.809592,-0.000073,0.003297,0,3,994456,15.54,147,147,147,2.98887,3.506885,-1.082449,-0.037317,-0.009603,0.000304,3,0,0,0,0,0,0
1.006837237,0.209086654,-1.801214,-0.004196,0.003755,0,3,994476,15.56,147,147,147,3.017036,3.453906,-1.082414,-0.037311,-0.007069,-0.000411,3,0,0,0,0,0,0
1.006837237,0.209086654,-1.803608,-0.00328,-0.000827,0,3,994496,15.58,147,147,147,3.045195,3.400925,-1.082397,-0.037326,-0.007658,-0.00045,3,0,0,0,0,0,0
1.006837237,0.209086654,-1.800017,-0.000684,0.002533,0,3,994516,15.6,147,147,147,3.073339,3.347935,-1.082416,-0.037322,-0.005903,0.000743,3,0,0,0,0,0,0
1.006837237,0.209086654,-1.800017,-0.001447,0.001464,0,3,994537,15.621,147,147,147,3.101494,3.294951,-1.082409,-0.03733,-0.006632,0.0004,3,0,0,0,0,0,0
1.006837237,0.209086654,-1.797624,-0.002364,0.001464,0,3,994556,15.64,147,147,147,3.129669,3.241978,-1.082358,-0.037345,-0.007258,0.000618,3,0,0,0,0,0,0
1.006837237,0.209086654,-1.79882,-0.003433,0.00238,0,3,994576,15.66,147,147,147,3.157837,3.189001,-1.08233,-0.037394,-0.009075,0.002436,3,0,0,0,0,0,0
1.006837237,0.209086654,-1.813182,-0.009083,0.002075,0,3,994596,15.68,147,147,147,3.186033,3.136039,-1.082242,-0.037406,-0.006658,0.000785,3,0,0,0,0,0,0
1.006837237,0.209086654,-1.819166,-0.00328,0.001006,0,3,994616,15.7,147,147,147,3.214212,3.083067,-1.082203,-0.037449,-0.007434,0.000482,3,0,0,0,0,0,0
1.006837237,0.209086654,-1.825151,-0.00328,-0.001132,0,3,994636,15.72,147,147,147,3.242385,3.030093,-1.082181,-0.037461,-0.007682,-0.000297,3,0,0,0,0,0,0
1.006837237,0.209086654,-1.825151,-0.007098,0.000395,0,3,994656,15.74,147,147,147,3.270551,2.977115,-1.082177,-0.037493,-0.009922,0.000173,3,0,0,0,0,0,0
1.006837237,0.209086654,-1.837119,-0.001906,0.003755,0,3,994676,15.76,147,147,147,3.298733,2.924145,-1.082137,-0.037511,-0.00704,0.001289,3,0,0,0,0,0,0
1.006837237,0.209086654,-1.826347,-0.004196,0.002075,0,3,994696,15.78,147,147,147,3.326913,2.871175,-1.082108,-0.037564,-0.009128,0.000619,3,0,0,0,0,0,0
1.006837237,0.209086654,-1.828741,-0.006182,0.001464,0,3,994716,15.8,147,147,147,3.355099,2.818207,-1.082069,-0.037653,-0.011048,0.000543,3,0,0,0,0,0,0
1.006837237,0.209086654,-1.789246,-0.00664,0.001922,0,3,994737,15.821,147,147,147,3.383282,2.765238,-1.08204,-0.037698,-0.008422,0.000837,3,0,0,0,0,0,0
1.006837237,0.209086654,-1.815576,-0.001753,0.001922,0,3,994756,15.84,147,147,147,3.411471,2.712273,-1.082001,-0.037734,-0.007591,0.000661,3,0,0,0,0,0,0
1.006837237,0.209086654,-1.809592,-0.004807,0.001006,0,3,994776,15.86,147,147,147,3.439673,2.659313,-1.081938,-0.037747,-0.008366,0.000495,3,0,0,0,0,0,0
1.006837237,0.209086654,-1.82156,-0.003891,0.001922,0,3,994796,15.88,147,147,147,3.467876,2.606355,-1.081881,-0.037749,-0.007618,0.00077,3,0,0,0,0,0,0
1.006837237,0.209086654,-1.811985,-0.006793,0.002228,0,3,994816,15.9,147,147,147,3.496078,2.553396,-1.081831,-0.037813,-0.010625,0.000802,3,0,0,0,0,0,0
1.006837237,0.209086654,-1.809592,-0.001142,-0.002659,0,3,994836,15.92,147,147,147,3.524291,2.500443,-1.081764,-0.037794,-0.006021,-0.000608,3,0,0,0,0,0,0
1.006837237,0.209086654,-1.832331,-0.001906,0.0007,0,3,994856,15.94,147,147,147,3.552471,2.447472,-1.081777,-0.037805,-0.007014,0.000231,3,0,0,0,0,0,0
1.006837237,0.209086654,-1.813182,-0.00328,0.000395,0,3,994876,15.96,147,147,147,3.580668,2.394511,-1.081752,-0.037829,-0.008024,0.000206,3,0,0,0,0,0,0
1.006837237,0.209086654,-1.816773,-0.002211,0.003449,0,3,994896,15.98,147,147,147,3.608859,2.341546,-1.081742,-0.037806,-0.006112,0.001064,3,0,0,0,0,0,0
1.006837237,0.209086654,-1.816773,-0.00496,0.005587,0,3,994916,16,147,147,147,3.63707,2.288592,-1.081691,-0.037835,-0.00871,0.001792,3,0,0,0,0,0,0
1.006837237,0.209086654,-1.808395,-0.00328,0.000395,0,3,994936,16.02,147,147,147,3.665289,2.235642,-1.081626,-0.037876,-0.008505,0.000204,3,0,0,0,0,0,0
1.006837237,0.209086654,-1.806001,-0.006487,-0.000369,0,3,994956,16.04,147,147,147,3.693487,2.182681,-1.081618,-0.037894,-0.009314,-0.000096,3,0,0,0,0,0,0
1.006837237,0.209086654,-1.827544,-0.005571,0.004671,0,3,994976,16.06,147,147,147,3.72168,2.129717,-1.08162,-0.037933,-0.009296,0.00142,3,0,0,0,0,0,0
1.006837237,0.209086654,-1.828741,-0.002058,0.0007,0,3,994996,16.08,147,147,147,3.749896,2.076766,-1.081572,-0.037962,-0.007635,0.000269,3,0,0,0,0,0,0
1.006837237,0.209086654,-1.792836,-0.004196,0.002075,0,3,995016,16.1,147,147,147,3.778098,2.023807,-1.081558,-0.037992,-0.008548,0.00066,3,0,0,0,0,0,0
1.006837237,0.209086654,-1.835922,-0.007709,0.003449,0,3,995036,16.12,147,147,147,3.806301,1.970849,-1.081547,-0.038053,-0.010912,0.001024,3,0,0,0,0,0,0
1.006837237,0.209086654,-1.804805,-0.002516,0.001769,0,3,995056,16.14,147,147,147,3.834525,1.917901,-1.08149,-0.038066,-0.007364,0.000669,3,0,0,0,0,0,0
1.006837237,0.209086654,-1.832331,-0.003738,0.001006,0,3,995076,16.16,147,147,147,3.862735,1.864947,-1.081469,-0.038067,-0.007605,0.000326,3,0,0,0,0,0,0
1.006837237,0.209086654,-1.806001,-0.00664,-0.000369,0,3,995096,16.18,147,147,147,3.890937,1.811988,-1.081469,-0.03812,-0.010411,-0.000142,3,0,0,0,0,0,0
1.006837237,0.209086654,-1.806001,-0.005724,0.001617,0,3,995116,16.2,147,147,147,3.919138,1.759028,-1.081471,-0.038177,-0.010024,0.000502,3,0,0,0,0,0,0
1.006837237,0.209086654,-1.819166,-0.007251,0.001464,0,3,995137,16.221,147,147,147,3.947347,1.706073,-1.081455,-0.038185,-0.007765,-0.000828,3,0,0,0,0,0,0
1.006837237,0.209086654,-1.809592,-0.002516,-0.000521,0,3,995156,16.24,147,147,147,3.975544,1.653112,-1.081467,-0.038225,-0.008202,-0.00011,3,0,0,0,0,0,0
1.006837237,0.209086654,-1.831135,-0.003891,0.001311,0,3,995176,16.26,147,147,147,4.003758,1.600159,-1.081439,-0.038245,-0.008215,0.000527,3,0,0,0,0,0,0
